"workerid","proliferate.condition.x","CC","SpeakerGender","block1","file","item_type","list","list_genderMaxes","list_whichSpPoliticsFirst","matrix_clause","name","orientation","participant_beliefs","predicate","rt_block1","slide_number_block1","socialInfo","speakerGendersMaxes","topic","whichSpPoliticsFirst","assertiveness_rating","block2","democrat_rating","empathy_rating","femininity_rating","intelligence_rating","republican_rating","rt_block2","slide_number_block2","spBelief_rating","block3","projection","rt_block3","slide_number_block3","true_false","trial","proliferate.condition.y","about","accent","age","american","comments","education","gender","income","language","otherParty","party","politics","race_asian","race_black","race_hawaiian","race_latino","race_native","race_otherRaceCheck","race_otherRaceText","race_white","state","state1year","whichAccent","error"
3862,"default","the 2020 election was legitimate","M","block1","M-R-Anthony.png","critical","list2","list2_1","list2_R","Jen didn't pretend that","Anthony","liberal",1,"pretend",4309,4,"R",1,"2020_election","R",0.78,"block2",0,0.01,0.02,0.03,1,17332,28,0.16,"block3",0,8895,44,NA,1,"default","Language interpretation in some way","No",36,"Yes",NA,4,"Male",5,"none",NA,"Dem",0.09,0,0,0,0,0,0,NA,1,"NJ","['NJ']","none",NA
3862,"default","the minimum wage is too low","F","block1","F-D-Anna.png","critical","list2","list2_1","list2_R","Ken isn't right that","Anna","liberal",0.98,"be_right",3263,5,"D",1,"minimum_wage","R",0.48,"block2",1,0.8,0.42,0.62,0,159091,24,0.74,"block3",0,9084,48,NA,2,"default","Language interpretation in some way","No",36,"Yes",NA,4,"Male",5,"none",NA,"Dem",0.09,0,0,0,0,0,0,NA,1,"NJ","['NJ']","none",NA
3862,"default","mask mandates are unnecessary","M","block1","M-R-Joseph.png","critical","list2","list2_1","list2_R","Wendy didn't acknowledge","Joseph","conservative",0.01,"acknowledge",4093,6,"R",1,"masks","R",0.77,"block2",0,0.03,0.02,0.13,1,17144,32,0.9,"block3",0.32,7278,58,NA,3,"default","Language interpretation in some way","No",36,"Yes",NA,4,"Male",5,"none",NA,"Dem",0.09,0,0,0,0,0,0,NA,1,"NJ","['NJ']","none",NA
3862,"default","closing businesses during COVID was unnecessary","F","block1","F-D-Rachel.png","MC","list2","list2_1","list2_R",NA,"Rachel","conservative",0.01,NA,3541,7,"D",1,"lockdown","R",0.36,"block2",0.99,0.7,0.31,0.67,0,19238,30,0.18,"block3",0.98,20719,38,NA,4,"default","Language interpretation in some way","No",36,"Yes",NA,4,"Male",5,"none",NA,"Dem",0.09,0,0,0,0,0,0,NA,1,"NJ","['NJ']","none",NA
3862,"default","COVID is an overhyped virus","F","block1","F-R-Kimberly.png","critical","list2","list2_1","list2_R","Mary didn't confess that","Kimberly","conservative",0.01,"confess",3028,8,"R",1,"COVID","R",0.65,"block2",0,0.08,0.24,0.09,1,14428,29,0.81,"block3",0,5778,53,NA,5,"default","Language interpretation in some way","No",36,"Yes",NA,4,"Male",5,"none",NA,"Dem",0.09,0,0,0,0,0,0,NA,1,"NJ","['NJ']","none",NA
3862,"default","the uprising at the Capitol was patriotic","M","block1","M-D-Tim.png","critical","list2","list2_1","list2_R","Glenn doesn't see that","Tim","conservative",0.01,"see",4201,9,"D",1,"capitol_uprising","R",0.29,"block2",0.98,0.8,0.2,0.76,0,26418,34,0,"block3",0.24,10296,55,NA,6,"default","Language interpretation in some way","No",36,"Yes",NA,4,"Male",5,"none",NA,"Dem",0.09,0,0,0,0,0,0,NA,1,"NJ","['NJ']","none",NA
3862,"default","it is too hard to get an abortion","F","block1","F-R-Amy.png","critical","list2","list2_1","list2_R","Grace didn't confess that","Amy","liberal",1,"confess",5853,10,"R",1,"abortion","R",0.69,"block2",0,0.07,0.24,0.2,1,18514,27,0.11,"block3",0.11,24031,56,NA,7,"default","Language interpretation in some way","No",36,"Yes",NA,4,"Male",5,"none",NA,"Dem",0.09,0,0,0,0,0,0,NA,1,"NJ","['NJ']","none",NA
3862,"default","the capital of the US is in Ohio",NA,"block1","NA.png","O","list2","list2_1","list2_R",NA,NA,NA,0,NA,5421,11,NA,1,"capital","R",NA,NA,NA,NA,NA,NA,NA,NA,NA,NA,NA,NA,NA,NA,NA,8,"default","Language interpretation in some way","No",36,"Yes",NA,4,"Male",5,"none",NA,"Dem",0.09,0,0,0,0,0,0,NA,1,"NJ","['NJ']","none",NA
3862,"default","Trump's policies improved the American economy","F","block1","F-D-Elizabeth.png","critical","list2","list2_1","list2_R","Tony isn't right that","Elizabeth","conservative",0,"be_right",3720,12,"D",1,"Trump_economy","R",0.39,"block2",0.99,0.8,0.56,0.77,0,33221,35,0.06,"block3",0,6369,50,NA,9,"default","Language interpretation in some way","No",36,"Yes",NA,4,"Male",5,"none",NA,"Dem",0.09,0,0,0,0,0,0,NA,1,"NJ","['NJ']","none",NA
3862,"default","it is too easy to buy guns","F","block1","F-D-Helen.png","critical","list2","list2_1","list2_R","Owen doesn't see that","Helen","liberal",1,"see",3703,13,"D",1,"gun_laws","R",0.5,"block2",0.98,0.77,0.63,0.7,0,21689,26,0.84,"block3",0.85,9222,54,NA,10,"default","Language interpretation in some way","No",36,"Yes",NA,4,"Male",5,"none",NA,"Dem",0.09,0,0,0,0,0,0,NA,1,"NJ","['NJ']","none",NA
3862,"default","medicaid is underfunded","M","block1","M-R-Jason.png","critical","list2","list2_1","list2_R","Allison didn't acknowledge","Jason","liberal",0.99,"acknowledge",3580,14,"R",1,"medicaid","R",0.66,"block2",0,0.2,0.08,0.09,1,15260,33,0.08,"block3",0,12117,41,NA,11,"default","Language interpretation in some way","No",36,"Yes",NA,4,"Male",5,"none",NA,"Dem",0.09,0,0,0,0,0,0,NA,1,"NJ","['NJ']","none",NA
3862,"default","the rich are taxed too much","F","block1","F-R-Lily.png","MC","list2","list2_1","list2_R",NA,"Lily","conservative",0.01,NA,4019,15,"R",1,"taxes","R",0.68,"block2",0,0.09,0.5,0.26,1,27578,21,0.85,"block3",0.87,4189,45,NA,12,"default","Language interpretation in some way","No",36,"Yes",NA,4,"Male",5,"none",NA,"Dem",0.09,0,0,0,0,0,0,NA,1,"NJ","['NJ']","none",NA
3862,"default","Trump handled the pandemic well","M","block1","M-D-James.png","critical","list2","list2_1","list2_R","Danny didn't suggest that","James","conservative",0,"suggest",3020,16,"D",1,"Trump_pandemic","R",0.47,"block2",1,0.76,0.28,0.66,0,17777,36,0,"block3",0,4699,59,NA,13,"default","Language interpretation in some way","No",36,"Yes",NA,4,"Male",5,"none",NA,"Dem",0.09,0,0,0,0,0,0,NA,1,"NJ","['NJ']","none",NA
3862,"default","the military is underfunded","F","block1","F-R-Sarah.png","critical","list2","list2_1","list2_R","Emma didn't pretend that","Sarah","conservative",0,"pretend",4419,17,"R",1,"military","R",0.72,"block2",0,0.02,0.12,0.07,1,20614,22,0.62,"block3",0.01,5988,49,NA,14,"default","Language interpretation in some way","No",36,"Yes",NA,4,"Male",5,"none",NA,"Dem",0.09,0,0,0,0,0,0,NA,1,"NJ","['NJ']","none",NA
3862,"default","U.S. presidential elections are held in November",NA,"block1","NA.png","O","list2","list2_1","list2_R",NA,NA,NA,1,NA,4497,18,NA,1,"elections","R",NA,NA,NA,NA,NA,NA,NA,NA,NA,NA,NA,NA,NA,NA,NA,15,"default","Language interpretation in some way","No",36,"Yes",NA,4,"Male",5,"none",NA,"Dem",0.09,0,0,0,0,0,0,NA,1,"NJ","['NJ']","none",NA
3862,"default","immigrants support the economy","M","block1","M-D-Daniel.png","critical","list2","list2_1","list2_R","Ben didn't suggest that","Daniel","liberal",1,"suggest",4141,19,"D",1,"immigrants","R",0.58,"block2",1,0.68,0.05,0.69,0,17606,25,0.87,"block3",0,6813,51,NA,16,"default","Language interpretation in some way","No",36,"Yes",NA,4,"Male",5,"none",NA,"Dem",0.09,0,0,0,0,0,0,NA,1,"NJ","['NJ']","none",NA
3977,"default","the 2020 election was rigged","M","block1","M-R-Ryan.png","critical","list1","list1_2","list1_R","Jen didn't suggest that","Ryan","conservative",0.03,"suggest",7765,4,"R",2,"2020_election","R",0.92,"block2",0.03,0.22,0.22,0.79,0.97,37155,26,0.87,"block3",0.25,8263,50,NA,1,"default","How race, appearance, and political orientation may bias perception","Yes",73,"Yes","None",4,"Male",5,"None",NA,"Dem",0.19,0,0,0,0,0,0,NA,1,"TN","['VA']","Southern",NA
3977,"default","it is too difficult to buy guns","F","block1","F-D-Elizabeth.png","critical","list1","list1_2","list1_R","Owen didn't say that","Elizabeth","conservative",0.24,"say",7389,5,"D",2,"gun_laws","R",0.58,"block2",0.97,0.72,0.71,0.7,0,39685,23,0.71,"block3",0.22,14576,55,NA,2,"default","How race, appearance, and political orientation may bias perception","Yes",73,"Yes","None",4,"Male",5,"None",NA,"Dem",0.19,0,0,0,0,0,0,NA,1,"TN","['VA']","Southern",NA
3977,"default","it is too easy to get an abortion","F","block1","F-R-Sarah.png","critical","list1","list1_2","list1_R","Grace doesn't know that","Sarah","conservative",0.17,"know",5055,6,"R",2,"abortion","R",0.77,"block2",0.02,0.39,0.54,0.49,0.97,57318,21,0.7,"block3",0.7,8201,45,NA,3,"default","How race, appearance, and political orientation may bias perception","Yes",73,"Yes","None",4,"Male",5,"None",NA,"Dem",0.19,0,0,0,0,0,0,NA,1,"TN","['VA']","Southern",NA
3977,"default","the uprising at the Capitol was domestic terrorism","M","block1","M-D-Tim.png","critical","list1","list1_2","list1_R","Glenn didn't say that","Tim","liberal",0.98,"say",4226,7,"D",2,"capitol_uprising","R",0.72,"block2",0.98,0.78,0.06,0.88,0,33124,32,0.98,"block3",0.91,9749,43,NA,4,"default","How race, appearance, and political orientation may bias perception","Yes",73,"Yes","None",4,"Male",5,"None",NA,"Dem",0.19,0,0,0,0,0,0,NA,1,"TN","['VA']","Southern",NA
3977,"default","Trump's policies damaged the American economy","F","block1","F-D-Anna.png","critical","list1","list1_2","list1_R","Tony didn't admit that","Anna","liberal",0.63,"admit",5358,8,"D",2,"Trump_economy","R",0.54,"block2",1,0.81,0.64,0.87,0,45109,27,0.75,"block3",0.98,8344,44,NA,5,"default","How race, appearance, and political orientation may bias perception","Yes",73,"Yes","None",4,"Male",5,"None",NA,"Dem",0.19,0,0,0,0,0,0,NA,1,"TN","['VA']","Southern",NA
3977,"default","COVID is a dangerous virus","F","block1","F-R-Donna.png","critical","list1","list1_2","list1_R","Mary doesn't know that","Donna","liberal",0.96,"know",3625,9,"R",2,"COVID","R",0.68,"block2",0.02,0.53,0.68,0.76,0.96,39506,28,0.92,"block3",0.98,6937,57,NA,6,"default","How race, appearance, and political orientation may bias perception","Yes",73,"Yes","None",4,"Male",5,"None",NA,"Dem",0.19,0,0,0,0,0,0,NA,1,"TN","['VA']","Southern",NA
3977,"default","the minimum wage is too high","F","block1","F-D-Lisa.png","critical","list1","list1_2","list1_R","Ken didn't admit that","Lisa","conservative",0.02,"admit",3930,10,"D",2,"minimum_wage","R",0.69,"block2",0.98,0.75,0.77,0.78,0.01,31766,24,0.08,"block3",0.98,14249,39,NA,7,"default","How race, appearance, and political orientation may bias perception","Yes",73,"Yes","None",4,"Male",5,"None",NA,"Dem",0.19,0,0,0,0,0,0,NA,1,"TN","['VA']","Southern",NA
3977,"default","the military is overfunded","F","block1","F-R-Kimberly.png","critical","list1","list1_2","list1_R","Emma didn't suggest that","Kimberly","liberal",0.84,"suggest",4023,11,"R",2,"military","R",0.77,"block2",0.03,0.43,0.76,0.86,0.96,32734,29,0.29,"block3",0.46,20462,54,NA,8,"default","How race, appearance, and political orientation may bias perception","Yes",73,"Yes","None",4,"Male",5,"None",NA,"Dem",0.19,0,0,0,0,0,0,NA,1,"TN","['VA']","Southern",NA
3977,"default","Trump handled the pandemic badly","M","block1","M-D-Daniel.png","critical","list1","list1_2","list1_R","Danny isn't annoyed that","Daniel","liberal",0.98,"be_annoyed",3771,12,"D",2,"Trump_pandemic","R",0.78,"block2",0.97,0.74,0.04,0.89,0,31242,35,0.96,"block3",0.98,11375,48,NA,9,"default","How race, appearance, and political orientation may bias perception","Yes",73,"Yes","None",4,"Male",5,"None",NA,"Dem",0.19,0,0,0,0,0,0,NA,1,"TN","['VA']","Southern",NA
3977,"default","immigrants steal jobs from Americans","M","block1","M-D-James.png","critical","list1","list1_2","list1_R","Ben isn't annoyed that","James","conservative",0.14,"be_annoyed",3508,13,"D",2,"immigrants","R",0.79,"block2",0.96,0.65,0.04,0.82,0,30405,30,0.19,"block3",0.83,11225,52,NA,10,"default","How race, appearance, and political orientation may bias perception","Yes",73,"Yes","None",4,"Male",5,"None",NA,"Dem",0.19,0,0,0,0,0,0,NA,1,"TN","['VA']","Southern",NA
3977,"default","closing businesses during COVID was necessary","F","block1","F-D-Veronica.png","MC","list1","list1_2","list1_R",NA,"Veronica","liberal",0.84,NA,5577,14,"D",2,"lockdown","R",0.86,"block2",0.98,0.75,0.7,0.89,0.02,29204,31,0.81,"block3",0.94,7499,47,NA,11,"default","How race, appearance, and political orientation may bias perception","Yes",73,"Yes","None",4,"Male",5,"None",NA,"Dem",0.19,0,0,0,0,0,0,NA,1,"TN","['VA']","Southern",NA
3977,"default","U.S. presidential elections are held in November",NA,"block1","NA.png","O","list1","list1_2","list1_R",NA,NA,NA,0.98,NA,5352,15,NA,2,"elections","R",NA,NA,NA,NA,NA,NA,NA,NA,NA,NA,NA,NA,NA,NA,NA,12,"default","How race, appearance, and political orientation may bias perception","Yes",73,"Yes","None",4,"Male",5,"None",NA,"Dem",0.19,0,0,0,0,0,0,NA,1,"TN","['VA']","Southern",NA
3977,"default","medicaid is overfunded","M","block1","M-R-Michael.png","critical","list1","list1_2","list1_R","Allison didn't confess that","Michael","conservative",0.2,"confess",7016,16,"R",2,"medicaid","R",0.72,"block2",0.01,0.45,0.14,0.72,0.96,27820,25,0.72,"block3",0.99,24164,38,NA,13,"default","How race, appearance, and political orientation may bias perception","Yes",73,"Yes","None",4,"Male",5,"None",NA,"Dem",0.19,0,0,0,0,0,0,NA,1,"TN","['VA']","Southern",NA
3977,"default","the rich are taxed too little","F","block1","F-R-Lily.png","MC","list1","list1_2","list1_R",NA,"Lily","liberal",0.97,NA,3421,17,"R",2,"taxes","R",0.51,"block2",0.77,0.53,0.71,0.96,0.14,38048,33,0.85,"block3",0.98,5601,49,NA,14,"default","How race, appearance, and political orientation may bias perception","Yes",73,"Yes","None",4,"Male",5,"None",NA,"Dem",0.19,0,0,0,0,0,0,NA,1,"TN","['VA']","Southern",NA
3977,"default","mask mandates are necessary","M","block1","M-R-Anthony.png","critical","list1","list1_2","list1_R","Wendy didn't confess that","Anthony","liberal",0.98,"confess",4226,18,"R",2,"masks","R",0.7,"block2",0.02,0.33,0.14,0.31,0.98,64768,22,0.15,"block3",0.66,8118,58,NA,15,"default","How race, appearance, and political orientation may bias perception","Yes",73,"Yes","None",4,"Male",5,"None",NA,"Dem",0.19,0,0,0,0,0,0,NA,1,"TN","['VA']","Southern",NA
3977,"default","the capital of the US is in Ohio",NA,"block1","NA.png","O","list1","list1_2","list1_R",NA,NA,NA,0.01,NA,6671,19,NA,2,"capital","R",NA,NA,NA,NA,NA,NA,NA,NA,NA,NA,NA,NA,NA,NA,NA,16,"default","How race, appearance, and political orientation may bias perception","Yes",73,"Yes","None",4,"Male",5,"None",NA,"Dem",0.19,0,0,0,0,0,0,NA,1,"TN","['VA']","Southern",NA
3863,"default","COVID is an overhyped virus","F","block1","F-R-Amy.png","critical","list2","list2_2","list2_R","Mary didn't say that","Amy","conservative",0.12,"say",6905,4,"R",2,"COVID","R",0.54,"block2",0,0.46,0.42,0.53,0.99,32925,23,0.74,"block3",0.51,3012,58,NA,1,"default","Perceptions of others based on their political affiliation","No",33,"Yes","n/a",3,"Male",6,NA,NA,"Dem",0.24,0,0,0,0,0,0,NA,1,"ME","['ME']",NA,NA
3863,"default","closing businesses during COVID was unnecessary","F","block1","F-D-Veronica.png","MC","list2","list2_2","list2_R",NA,"Veronica","conservative",0.21,NA,9749,5,"D",2,"lockdown","R",0.59,"block2",1,0.39,0.72,0.48,0,22259,28,0.16,"block3",1,7893,53,NA,2,"default","Perceptions of others based on their political affiliation","No",33,"Yes","n/a",3,"Male",6,NA,NA,"Dem",0.24,0,0,0,0,0,0,NA,1,"ME","['ME']",NA,NA
3863,"default","the 2020 election was legitimate","F","block1","F-R-Sarah.png","critical","list2","list2_2","list2_R","Jen doesn't know that","Sarah","liberal",0.91,"know",4171,6,"R",2,"2020_election","R",0.37,"block2",0,0.36,0.49,0.33,1,18813,32,0.25,"block3",1,10095,40,NA,3,"default","Perceptions of others based on their political affiliation","No",33,"Yes","n/a",3,"Male",6,NA,NA,"Dem",0.24,0,0,0,0,0,0,NA,1,"ME","['ME']",NA,NA
3863,"default","it is too hard to get an abortion","F","block1","F-R-Kimberly.png","critical","list2","list2_2","list2_R","Grace didn't say that","Kimberly","liberal",0.78,"say",7668,7,"R",2,"abortion","R",0.66,"block2",0,0.36,0.53,0.64,1,14816,36,0.17,"block3",0.53,10100,50,NA,4,"default","Perceptions of others based on their political affiliation","No",33,"Yes","n/a",3,"Male",6,NA,NA,"Dem",0.24,0,0,0,0,0,0,NA,1,"ME","['ME']",NA,NA
3863,"default","the rich are taxed too much","F","block1","F-R-Lily.png","MC","list2","list2_2","list2_R",NA,"Lily","conservative",0.15,NA,3728,8,"R",2,"taxes","R",0.28,"block2",0.03,0.36,0.66,0.51,0.98,23172,27,0.73,"block3",1,5209,39,NA,5,"default","Perceptions of others based on their political affiliation","No",33,"Yes","n/a",3,"Male",6,NA,NA,"Dem",0.24,0,0,0,0,0,0,NA,1,"ME","['ME']",NA,NA
3863,"default","immigrants support the economy","M","block1","M-D-Tim.png","critical","list2","list2_2","list2_R","Ben didn't acknowledge","Tim","liberal",0.63,"acknowledge",5687,9,"D",2,"immigrants","R",0.52,"block2",1,0.63,0.44,0.59,0,22704,24,0.72,"block3",0.83,7758,47,NA,6,"default","Perceptions of others based on their political affiliation","No",33,"Yes","n/a",3,"Male",6,NA,NA,"Dem",0.24,0,0,0,0,0,0,NA,1,"ME","['ME']",NA,NA
3863,"default","the minimum wage is too low","F","block1","F-D-Helen.png","critical","list2","list2_2","list2_R","Ken doesn't think that","Helen","liberal",0.59,"think",4632,10,"D",2,"minimum_wage","R",0.64,"block2",1,0.69,0.71,0.72,0,18136,26,0.85,"block3",0.78,22474,38,NA,7,"default","Perceptions of others based on their political affiliation","No",33,"Yes","n/a",3,"Male",6,NA,NA,"Dem",0.24,0,0,0,0,0,0,NA,1,"ME","['ME']",NA,NA
3863,"default","the military is underfunded","M","block1","M-R-Jason.png","critical","list2","list2_2","list2_R","Emma doesn't know that","Jason","conservative",0.26,"know",2716,11,"R",2,"military","R",0.57,"block2",0.01,0.56,0.18,0.51,0.98,30965,25,0.69,"block3",0.83,5940,43,NA,8,"default","Perceptions of others based on their political affiliation","No",33,"Yes","n/a",3,"Male",6,NA,NA,"Dem",0.24,0,0,0,0,0,0,NA,1,"ME","['ME']",NA,NA
3863,"default","mask mandates are unnecessary","M","block1","M-R-Anthony.png","critical","list2","list2_2","list2_R","Wendy didn't pretend that","Anthony","conservative",0.2,"pretend",3295,12,"R",2,"masks","R",0.87,"block2",0.01,0.39,0.27,0.5,0.99,28868,21,0.76,"block3",0.76,16659,46,NA,9,"default","Perceptions of others based on their political affiliation","No",33,"Yes","n/a",3,"Male",6,NA,NA,"Dem",0.24,0,0,0,0,0,0,NA,1,"ME","['ME']",NA,NA
3863,"default","the capital of the US is in Ohio",NA,"block1","NA.png","O","list2","list2_2","list2_R",NA,NA,NA,0,NA,4777,13,NA,2,"capital","R",NA,NA,NA,NA,NA,NA,NA,NA,NA,NA,NA,NA,NA,NA,NA,10,"default","Perceptions of others based on their political affiliation","No",33,"Yes","n/a",3,"Male",6,NA,NA,"Dem",0.24,0,0,0,0,0,0,NA,1,"ME","['ME']",NA,NA
3863,"default","U.S. presidential elections are held in November",NA,"block1","NA.png","O","list2","list2_2","list2_R",NA,NA,NA,1,NA,3432,14,NA,2,"elections","R",NA,NA,NA,NA,NA,NA,NA,NA,NA,NA,NA,NA,NA,NA,NA,11,"default","Perceptions of others based on their political affiliation","No",33,"Yes","n/a",3,"Male",6,NA,NA,"Dem",0.24,0,0,0,0,0,0,NA,1,"ME","['ME']",NA,NA
3863,"default","it is too easy to buy guns","M","block1","M-D-Daniel.png","critical","list2","list2_2","list2_R","Owen didn't admit that","Daniel","liberal",0.74,"admit",10143,15,"D",2,"gun_laws","R",0.72,"block2",1,0.72,0.19,0.72,0,17653,30,0.78,"block3",0.51,4644,56,NA,12,"default","Perceptions of others based on their political affiliation","No",33,"Yes","n/a",3,"Male",6,NA,NA,"Dem",0.24,0,0,0,0,0,0,NA,1,"ME","['ME']",NA,NA
3863,"default","the uprising at the Capitol was patriotic","F","block1","F-D-Anna.png","critical","list2","list2_2","list2_R","Glenn didn't admit that","Anna","conservative",0,"admit",3792,16,"D",2,"capitol_uprising","R",0.41,"block2",1,0.55,0.58,0.41,0,23136,29,0.01,"block3",0.5,3352,54,NA,13,"default","Perceptions of others based on their political affiliation","No",33,"Yes","n/a",3,"Male",6,NA,NA,"Dem",0.24,0,0,0,0,0,0,NA,1,"ME","['ME']",NA,NA
3863,"default","Trump's policies improved the American economy","F","block1","F-D-Lisa.png","critical","list2","list2_2","list2_R","Tony doesn't think that","Lisa","conservative",0.22,"think",6837,17,"D",2,"Trump_economy","R",0.66,"block2",1,0.67,0.71,0.63,0,16373,33,0.13,"block3",0.5,4518,51,NA,14,"default","Perceptions of others based on their political affiliation","No",33,"Yes","n/a",3,"Male",6,NA,NA,"Dem",0.24,0,0,0,0,0,0,NA,1,"ME","['ME']",NA,NA
3863,"default","medicaid is underfunded","M","block1","M-R-Joseph.png","critical","list2","list2_2","list2_R","Allison didn't pretend that","Joseph","liberal",0.8,"pretend",2451,18,"R",2,"medicaid","R",0.37,"block2",0,0.34,0.3,0.35,1,21252,35,0.23,"block3",0.5,3159,52,NA,15,"default","Perceptions of others based on their political affiliation","No",33,"Yes","n/a",3,"Male",6,NA,NA,"Dem",0.24,0,0,0,0,0,0,NA,1,"ME","['ME']",NA,NA
3863,"default","Trump handled the pandemic well","M","block1","M-D-James.png","critical","list2","list2_2","list2_R","Danny didn't acknowledge","James","conservative",0,"acknowledge",2282,19,"D",2,"Trump_pandemic","R",0.63,"block2",1,0.63,0.17,0.62,0,19659,31,0,"block3",0.88,7545,41,NA,16,"default","Perceptions of others based on their political affiliation","No",33,"Yes","n/a",3,"Male",6,NA,NA,"Dem",0.24,0,0,0,0,0,0,NA,1,"ME","['ME']",NA,NA
3991,"default","it is too difficult to buy guns","F","block1","F-R-Sarah.png","critical","list1","list1_1","list1_D","Owen doesn't think that","Sarah","conservative",0.12,"think",10915,4,"R",1,"gun_laws","D",0.41,"block2",0,0.28,0.53,0.3,1,22572,29,0.18,"block3",0.38,9349,59,NA,1,"default","How people view and judge others over their political opinions.","No",18,"Yes",NA,1,"Female",2,NA,NA,"Dem",0.19,0,0,0,0,0,0,NA,1,"TN","['TN']",NA,NA
3991,"default","Trump's policies damaged the American economy","M","block1","M-R-Ryan.png","critical","list1","list1_1","list1_D","Tony doesn't see that","Ryan","liberal",0.52,"see",5975,5,"R",1,"Trump_economy","D",1,"block2",0,0.1,0.37,0,1,23560,28,0,"block3",0.66,6340,53,NA,2,"default","How people view and judge others over their political opinions.","No",18,"Yes",NA,1,"Female",2,NA,NA,"Dem",0.19,0,0,0,0,0,0,NA,1,"TN","['TN']",NA,NA
3991,"default","the 2020 election was rigged","M","block1","M-D-James.png","critical","list1","list1_1","list1_D","Jen didn't hear that","James","conservative",0,"hear",3078,6,"D",1,"2020_election","D",0.57,"block2",1,0.45,0.16,0.7,0,44718,32,0.23,"block3",0.94,8535,57,NA,3,"default","How people view and judge others over their political opinions.","No",18,"Yes",NA,1,"Female",2,NA,NA,"Dem",0.19,0,0,0,0,0,0,NA,1,"TN","['TN']",NA,NA
3991,"default","closing businesses during COVID was necessary","M","block1","M-R-Eric.png","MC","list1","list1_1","list1_D",NA,"Eric","liberal",0.93,NA,6795,7,"R",1,"lockdown","D",0.56,"block2",0,0.2,0.09,0.45,1,31510,27,0.18,"block3",1,29418,38,NA,4,"default","How people view and judge others over their political opinions.","No",18,"Yes",NA,1,"Female",2,NA,NA,"Dem",0.19,0,0,0,0,0,0,NA,1,"TN","['TN']",NA,NA
3991,"default","mask mandates are necessary","F","block1","F-D-Lisa.png","critical","list1","list1_1","list1_D","Wendy doesn't know that","Lisa","liberal",1,"know",2551,8,"D",1,"masks","D",0,"block2",1,1,1,0.35,0,26191,35,0.62,"block3",0.43,24152,39,NA,5,"default","How people view and judge others over their political opinions.","No",18,"Yes",NA,1,"Female",2,NA,NA,"Dem",0.19,0,0,0,0,0,0,NA,1,"TN","['TN']",NA,NA
3991,"default","Trump handled the pandemic badly","F","block1","F-R-Kimberly.png","critical","list1","list1_1","list1_D","Danny didn't say that","Kimberly","liberal",1,"say",3445,9,"R",1,"Trump_pandemic","D",0.65,"block2",0,0.45,0.82,0.43,1,71001,34,0.11,"block3",0.18,8981,47,NA,6,"default","How people view and judge others over their political opinions.","No",18,"Yes",NA,1,"Female",2,NA,NA,"Dem",0.19,0,0,0,0,0,0,NA,1,"TN","['TN']",NA,NA
3991,"default","COVID is a dangerous virus","M","block1","M-D-Daniel.png","critical","list1","list1_1","list1_D","Mary isn't annoyed that","Daniel","liberal",1,"be_annoyed",2513,10,"D",1,"COVID","D",0.63,"block2",1,0.28,0,1,0,57693,24,0.65,"block3",0.96,7002,54,NA,7,"default","How people view and judge others over their political opinions.","No",18,"Yes",NA,1,"Female",2,NA,NA,"Dem",0.19,0,0,0,0,0,0,NA,1,"TN","['TN']",NA,NA
3991,"default","immigrants steal jobs from Americans","F","block1","F-R-Donna.png","critical","list1","list1_1","list1_D","Ben didn't say that","Donna","conservative",0.4,"say",4213,11,"R",1,"immigrants","D",0.75,"block2",0,0.26,0.84,0.53,1,24838,26,0.73,"block3",0.68,8608,44,NA,8,"default","How people view and judge others over their political opinions.","No",18,"Yes",NA,1,"Female",2,NA,NA,"Dem",0.19,0,0,0,0,0,0,NA,1,"TN","['TN']",NA,NA
3991,"default","medicaid is overfunded","F","block1","F-D-Elizabeth.png","critical","list1","list1_1","list1_D","Allison doesn't know that","Elizabeth","conservative",0.5,"know",5285,12,"D",1,"medicaid","D",0.57,"block2",1,0.63,0.75,0.96,0,87665,33,0.3,"block3",0.79,12352,43,NA,9,"default","How people view and judge others over their political opinions.","No",18,"Yes",NA,1,"Female",2,NA,NA,"Dem",0.19,0,0,0,0,0,0,NA,1,"TN","['TN']",NA,NA
3991,"default","the rich are taxed too little","F","block1","F-D-Veronica.png","MC","list1","list1_1","list1_D",NA,"Veronica","liberal",0.85,NA,2537,13,"D",1,"taxes","D",0.24,"block2",1,0.63,0.72,0.69,0,49389,21,0.83,"block3",1,6428,52,NA,10,"default","How people view and judge others over their political opinions.","No",18,"Yes",NA,1,"Female",2,NA,NA,"Dem",0.19,0,0,0,0,0,0,NA,1,"TN","['TN']",NA,NA
3991,"default","the uprising at the Capitol was domestic terrorism","M","block1","M-R-Jason.png","critical","list1","list1_1","list1_D","Glenn doesn't think that","Jason","liberal",0.95,"think",3902,14,"R",1,"capitol_uprising","D",1,"block2",0,0,0.13,0.1,1,104988,22,0.12,"block3",0.68,6496,55,NA,11,"default","How people view and judge others over their political opinions.","No",18,"Yes",NA,1,"Female",2,NA,NA,"Dem",0.19,0,0,0,0,0,0,NA,1,"TN","['TN']",NA,NA
3991,"default","the capital of the US is in Ohio",NA,"block1","NA.png","O","list1","list1_1","list1_D",NA,NA,NA,0,NA,29356,15,NA,1,"capital","D",NA,NA,NA,NA,NA,NA,NA,NA,NA,NA,NA,NA,NA,NA,NA,12,"default","How people view and judge others over their political opinions.","No",18,"Yes",NA,1,"Female",2,NA,NA,"Dem",0.19,0,0,0,0,0,0,NA,1,"TN","['TN']",NA,NA
3991,"default","the military is overfunded","F","block1","F-D-Helen.png","critical","list1","list1_1","list1_D","Emma didn't hear that","Helen","liberal",0.85,"hear",2698,16,"D",1,"military","D",0,"block2",1,0.94,1,0.68,0,31178,31,0.86,"block3",0.92,5813,49,NA,13,"default","How people view and judge others over their political opinions.","No",18,"Yes",NA,1,"Female",2,NA,NA,"Dem",0.19,0,0,0,0,0,0,NA,1,"TN","['TN']",NA,NA
3991,"default","U.S. presidential elections are held in November",NA,"block1","NA.png","O","list1","list1_1","list1_D",NA,NA,NA,1,NA,59008,17,NA,1,"elections","D",NA,NA,NA,NA,NA,NA,NA,NA,NA,NA,NA,NA,NA,NA,NA,14,"default","How people view and judge others over their political opinions.","No",18,"Yes",NA,1,"Female",2,NA,NA,"Dem",0.19,0,0,0,0,0,0,NA,1,"TN","['TN']",NA,NA
3991,"default","it is too easy to get an abortion","M","block1","M-D-Tim.png","critical","list1","list1_1","list1_D","Grace isn't annoyed that","Tim","conservative",0.25,"be_annoyed",3662,18,"D",1,"abortion","D",0.17,"block2",1,0.4,0.52,0.59,0,27201,30,0.66,"block3",0.91,7455,45,NA,15,"default","How people view and judge others over their political opinions.","No",18,"Yes",NA,1,"Female",2,NA,NA,"Dem",0.19,0,0,0,0,0,0,NA,1,"TN","['TN']",NA,NA
3991,"default","the minimum wage is too high","M","block1","M-R-Joseph.png","critical","list1","list1_1","list1_D","Ken doesn't see that","Joseph","conservative",0,"see",3790,19,"R",1,"minimum_wage","D",0.92,"block2",0,0,0.22,0.71,1,35037,36,0.72,"block3",1,6224,58,NA,16,"default","How people view and judge others over their political opinions.","No",18,"Yes",NA,1,"Female",2,NA,NA,"Dem",0.19,0,0,0,0,0,0,NA,1,"TN","['TN']",NA,NA
3881,"default","the 2020 election was legitimate","M","block1","M-R-Joseph.png","critical","list2","list2_1","list2_R","Jen isn't annoyed that","Joseph","liberal",0.99,"be_annoyed",15340,4,"R",1,"2020_election","R",0.53,"block2",0,0.45,0.45,0.52,1,101952,27,0.61,"block3",1,10443,58,NA,1,"default","There may be an interest in how various factors (our own beliefs, a person's party, a person's demographics/appearance, whether statements are about the person's own or other views) interact to affect our perceptions of what they say,","No",40,"Yes","no comments, good luck with the research",4,"Female",1,"n/a",NA,"Dem",0.1,0,0,0,0,0,0,NA,1,"PA","['IL', 'MN', 'NJ', 'PA']",NA,NA
3881,"default","the uprising at the Capitol was patriotic","M","block1","M-D-Daniel.png","critical","list2","list2_1","list2_R","Glenn didn't acknowledge","Daniel","conservative",0,"acknowledge",2749,5,"D",1,"capitol_uprising","R",0.71,"block2",1,0.64,0.3,0.67,0,17193,34,0,"block3",0.29,18151,44,NA,2,"default","There may be an interest in how various factors (our own beliefs, a person's party, a person's demographics/appearance, whether statements are about the person's own or other views) interact to affect our perceptions of what they say,","No",40,"Yes","no comments, good luck with the research",4,"Female",1,"n/a",NA,"Dem",0.1,0,0,0,0,0,0,NA,1,"PA","['IL', 'MN', 'NJ', 'PA']",NA,NA
3881,"default","Trump handled the pandemic well","M","block1","M-D-James.png","critical","list2","list2_1","list2_R","Danny doesn't know that","James","conservative",0,"know",3698,6,"D",1,"Trump_pandemic","R",0.61,"block2",1,0.65,0.36,0.7,0,19798,29,0,"block3",0.05,11626,59,NA,3,"default","There may be an interest in how various factors (our own beliefs, a person's party, a person's demographics/appearance, whether statements are about the person's own or other views) interact to affect our perceptions of what they say,","No",40,"Yes","no comments, good luck with the research",4,"Female",1,"n/a",NA,"Dem",0.1,0,0,0,0,0,0,NA,1,"PA","['IL', 'MN', 'NJ', 'PA']",NA,NA
3881,"default","it is too easy to buy guns","F","block1","F-D-Elizabeth.png","critical","list2","list2_1","list2_R","Owen didn't acknowledge","Elizabeth","liberal",1,"acknowledge",2347,7,"D",1,"gun_laws","R",0.57,"block2",1,0.67,0.63,0.65,0,33357,25,0.93,"block3",0.87,11741,52,NA,4,"default","There may be an interest in how various factors (our own beliefs, a person's party, a person's demographics/appearance, whether statements are about the person's own or other views) interact to affect our perceptions of what they say,","No",40,"Yes","no comments, good luck with the research",4,"Female",1,"n/a",NA,"Dem",0.1,0,0,0,0,0,0,NA,1,"PA","['IL', 'MN', 'NJ', 'PA']",NA,NA
3881,"default","immigrants support the economy","M","block1","M-D-Tim.png","critical","list2","list2_1","list2_R","Ben doesn't know that","Tim","liberal",1,"know",3941,8,"D",1,"immigrants","R",0.59,"block2",1,0.74,0.48,0.65,0,27694,22,0.96,"block3",1,9309,51,NA,5,"default","There may be an interest in how various factors (our own beliefs, a person's party, a person's demographics/appearance, whether statements are about the person's own or other views) interact to affect our perceptions of what they say,","No",40,"Yes","no comments, good luck with the research",4,"Female",1,"n/a",NA,"Dem",0.1,0,0,0,0,0,0,NA,1,"PA","['IL', 'MN', 'NJ', 'PA']",NA,NA
3881,"default","the minimum wage is too low","F","block1","F-D-Helen.png","critical","list2","list2_1","list2_R","Ken didn't hear that","Helen","liberal",1,"hear",2253,9,"D",1,"minimum_wage","R",0.58,"block2",1,0.65,0.7,0.69,0,14497,23,1,"block3",0.93,10328,54,NA,6,"default","There may be an interest in how various factors (our own beliefs, a person's party, a person's demographics/appearance, whether statements are about the person's own or other views) interact to affect our perceptions of what they say,","No",40,"Yes","no comments, good luck with the research",4,"Female",1,"n/a",NA,"Dem",0.1,0,0,0,0,0,0,NA,1,"PA","['IL', 'MN', 'NJ', 'PA']",NA,NA
3881,"default","Trump's policies improved the American economy","F","block1","F-D-Michelle.png","critical","list2","list2_1","list2_R","Tony didn't hear that","Michelle","conservative",0,"hear",3995,10,"D",1,"Trump_economy","R",0.69,"block2",1,0.67,0.61,0.76,0,35032,33,0,"block3",0.11,14076,49,NA,7,"default","There may be an interest in how various factors (our own beliefs, a person's party, a person's demographics/appearance, whether statements are about the person's own or other views) interact to affect our perceptions of what they say,","No",40,"Yes","no comments, good luck with the research",4,"Female",1,"n/a",NA,"Dem",0.1,0,0,0,0,0,0,NA,1,"PA","['IL', 'MN', 'NJ', 'PA']",NA,NA
3881,"default","closing businesses during COVID was unnecessary","F","block1","F-D-Rachel.png","MC","list2","list2_1","list2_R",NA,"Rachel","conservative",0,NA,2719,11,"D",1,"lockdown","R",0.67,"block2",1,0.75,0.67,0.8,0,12989,30,0,"block3",1,14008,39,NA,8,"default","There may be an interest in how various factors (our own beliefs, a person's party, a person's demographics/appearance, whether statements are about the person's own or other views) interact to affect our perceptions of what they say,","No",40,"Yes","no comments, good luck with the research",4,"Female",1,"n/a",NA,"Dem",0.1,0,0,0,0,0,0,NA,1,"PA","['IL', 'MN', 'NJ', 'PA']",NA,NA
3881,"default","U.S. presidential elections are held in November",NA,"block1","NA.png","O","list2","list2_1","list2_R",NA,NA,NA,1,NA,3463,12,NA,1,"elections","R",NA,NA,NA,NA,NA,NA,NA,NA,NA,NA,NA,NA,NA,NA,NA,9,"default","There may be an interest in how various factors (our own beliefs, a person's party, a person's demographics/appearance, whether statements are about the person's own or other views) interact to affect our perceptions of what they say,","No",40,"Yes","no comments, good luck with the research",4,"Female",1,"n/a",NA,"Dem",0.1,0,0,0,0,0,0,NA,1,"PA","['IL', 'MN', 'NJ', 'PA']",NA,NA
3881,"default","the capital of the US is in Ohio",NA,"block1","NA.png","O","list2","list2_1","list2_R",NA,NA,NA,0,NA,2597,13,NA,1,"capital","R",NA,NA,NA,NA,NA,NA,NA,NA,NA,NA,NA,NA,NA,NA,NA,10,"default","There may be an interest in how various factors (our own beliefs, a person's party, a person's demographics/appearance, whether statements are about the person's own or other views) interact to affect our perceptions of what they say,","No",40,"Yes","no comments, good luck with the research",4,"Female",1,"n/a",NA,"Dem",0.1,0,0,0,0,0,0,NA,1,"PA","['IL', 'MN', 'NJ', 'PA']",NA,NA
3881,"default","the military is underfunded","F","block1","F-R-Donna.png","critical","list2","list2_1","list2_R","Emma isn't annoyed that","Donna","conservative",0,"be_annoyed",3573,14,"R",1,"military","R",0.7,"block2",0,0.47,0.68,0.53,1,33252,32,0.56,"block3",0.84,13796,46,NA,11,"default","There may be an interest in how various factors (our own beliefs, a person's party, a person's demographics/appearance, whether statements are about the person's own or other views) interact to affect our perceptions of what they say,","No",40,"Yes","no comments, good luck with the research",4,"Female",1,"n/a",NA,"Dem",0.1,0,0,0,0,0,0,NA,1,"PA","['IL', 'MN', 'NJ', 'PA']",NA,NA
3881,"default","mask mandates are unnecessary","M","block1","M-R-Michael.png","critical","list2","list2_1","list2_R","Wendy didn't say that","Michael","conservative",0,"say",2439,15,"R",1,"masks","R",0.6,"block2",0,0.53,0.44,0.51,1,24142,24,0.92,"block3",0.65,19876,45,NA,12,"default","There may be an interest in how various factors (our own beliefs, a person's party, a person's demographics/appearance, whether statements are about the person's own or other views) interact to affect our perceptions of what they say,","No",40,"Yes","no comments, good luck with the research",4,"Female",1,"n/a",NA,"Dem",0.1,0,0,0,0,0,0,NA,1,"PA","['IL', 'MN', 'NJ', 'PA']",NA,NA
3881,"default","medicaid is underfunded","M","block1","M-R-Ryan.png","critical","list2","list2_1","list2_R","Allison didn't say that","Ryan","liberal",0.85,"say",8271,16,"R",1,"medicaid","R",0.74,"block2",0,0.37,0.41,0.53,1,17915,35,0,"block3",0.13,29038,38,NA,13,"default","There may be an interest in how various factors (our own beliefs, a person's party, a person's demographics/appearance, whether statements are about the person's own or other views) interact to affect our perceptions of what they say,","No",40,"Yes","no comments, good luck with the research",4,"Female",1,"n/a",NA,"Dem",0.1,0,0,0,0,0,0,NA,1,"PA","['IL', 'MN', 'NJ', 'PA']",NA,NA
3881,"default","the rich are taxed too much","F","block1","F-R-Lily.png","MC","list2","list2_1","list2_R",NA,"Lily","conservative",0,NA,2109,17,"R",1,"taxes","R",0.63,"block2",0,0.41,0.68,0.58,1,29852,28,0.72,"block3",1,4792,42,NA,14,"default","There may be an interest in how various factors (our own beliefs, a person's party, a person's demographics/appearance, whether statements are about the person's own or other views) interact to affect our perceptions of what they say,","No",40,"Yes","no comments, good luck with the research",4,"Female",1,"n/a",NA,"Dem",0.1,0,0,0,0,0,0,NA,1,"PA","['IL', 'MN', 'NJ', 'PA']",NA,NA
3881,"default","it is too hard to get an abortion","F","block1","F-R-Kimberly.png","critical","list2","list2_1","list2_R","Grace isn't right that","Kimberly","liberal",1,"be_right",2184,18,"R",1,"abortion","R",0.63,"block2",0,0.54,0.63,0.54,1,105545,26,0.21,"block3",0,12256,55,NA,15,"default","There may be an interest in how various factors (our own beliefs, a person's party, a person's demographics/appearance, whether statements are about the person's own or other views) interact to affect our perceptions of what they say,","No",40,"Yes","no comments, good luck with the research",4,"Female",1,"n/a",NA,"Dem",0.1,0,0,0,0,0,0,NA,1,"PA","['IL', 'MN', 'NJ', 'PA']",NA,NA
3881,"default","COVID is an overhyped virus","F","block1","F-R-Sarah.png","critical","list2","list2_1","list2_R","Mary isn't right that","Sarah","conservative",0,"be_right",1817,19,"R",1,"COVID","R",0.61,"block2",0,0.62,0.61,0.55,1,21507,31,0.64,"block3",0,8619,40,NA,16,"default","There may be an interest in how various factors (our own beliefs, a person's party, a person's demographics/appearance, whether statements are about the person's own or other views) interact to affect our perceptions of what they say,","No",40,"Yes","no comments, good luck with the research",4,"Female",1,"n/a",NA,"Dem",0.1,0,0,0,0,0,0,NA,1,"PA","['IL', 'MN', 'NJ', 'PA']",NA,NA
3985,"default","Trump handled the pandemic well","F","block1","F-R-Amy.png","critical","list2","list2_2","list2_D","Danny didn't acknowledge","Amy","conservative",0.1,"acknowledge",44498,4,"R",2,"Trump_pandemic","D",0.69,"block2",0.01,0.56,0.98,0.65,0.98,13212,29,0.48,"block3",1,7400,59,NA,1,"default","Answer questions about political beliefs, impressions of people, and the meaning of statements
","No",35,"Yes",NA,1,"Male",0,"english","none","-1",0.5,0,0,0,0,0,0,NA,1,"CA","['CA']",NA,NA
3985,"default","the minimum wage is too low","M","block1","M-R-Jason.png","critical","list2","list2_2","list2_D","Ken doesn't see that","Jason","liberal",0.69,"see",2692,5,"R",2,"minimum_wage","D",0.46,"block2",0,0.67,1,0.71,1,13656,26,0.5,"block3",1,6785,46,NA,2,"default","Answer questions about political beliefs, impressions of people, and the meaning of statements
","No",35,"Yes",NA,1,"Male",0,"english","none","-1",0.5,0,0,0,0,0,0,NA,1,"CA","['CA']",NA,NA
3985,"default","COVID is an overhyped virus","M","block1","M-D-John.png","critical","list2","list2_2","list2_D","Mary isn't right that","John","conservative",0.02,"be_right",4507,6,"D",2,"COVID","D",0.48,"block2",1,0.57,0.53,0.64,0,17617,23,0.46,"block3",0,12231,55,NA,3,"default","Answer questions about political beliefs, impressions of people, and the meaning of statements
","No",35,"Yes",NA,1,"Male",0,"english","none","-1",0.5,0,0,0,0,0,0,NA,1,"CA","['CA']",NA,NA
3985,"default","the 2020 election was legitimate","M","block1","M-D-Tim.png","critical","list2","list2_2","list2_D","Jen didn't pretend that","Tim","liberal",0.48,"pretend",2939,7,"D",2,"2020_election","D",0.73,"block2",0.98,0.65,0,0.69,0,12275,30,0.46,"block3",1,9942,50,NA,4,"default","Answer questions about political beliefs, impressions of people, and the meaning of statements
","No",35,"Yes",NA,1,"Male",0,"english","none","-1",0.5,0,0,0,0,0,0,NA,1,"CA","['CA']",NA,NA
3985,"default","the military is underfunded","F","block1","F-D-Lisa.png","critical","list2","list2_2","list2_D","Emma didn't pretend that","Lisa","conservative",0.49,"pretend",3262,8,"D",2,"military","D",0.61,"block2",1,0.58,1,0.52,0,17749,22,0.53,"block3",0.51,11191,57,NA,5,"default","Answer questions about political beliefs, impressions of people, and the meaning of statements
","No",35,"Yes",NA,1,"Male",0,"english","none","-1",0.5,0,0,0,0,0,0,NA,1,"CA","['CA']",NA,NA
3985,"default","medicaid is underfunded","F","block1","F-D-Michelle.png","critical","list2","list2_2","list2_D","Allison didn't admit that","Michelle","liberal",0.84,"admit",2814,9,"D",2,"medicaid","D",0.89,"block2",1,0.66,1,0.78,0,10550,35,0.54,"block3",1,22290,52,NA,6,"default","Answer questions about political beliefs, impressions of people, and the meaning of statements
","No",35,"Yes",NA,1,"Male",0,"english","none","-1",0.5,0,0,0,0,0,0,NA,1,"CA","['CA']",NA,NA
3985,"default","the uprising at the Capitol was patriotic","M","block1","M-R-Joseph.png","critical","list2","list2_2","list2_D","Glenn didn't say that","Joseph","conservative",0.03,"say",3870,10,"R",2,"capitol_uprising","D",0.51,"block2",0,0.47,0,0.53,1,11860,34,0.48,"block3",1,6856,47,NA,7,"default","Answer questions about political beliefs, impressions of people, and the meaning of statements
","No",35,"Yes",NA,1,"Male",0,"english","none","-1",0.5,0,0,0,0,0,0,NA,1,"CA","['CA']",NA,NA
3985,"default","the capital of the US is in Ohio",NA,"block1","NA.png","O","list2","list2_2","list2_D",NA,NA,NA,0,NA,4265,11,NA,2,"capital","D",NA,NA,NA,NA,NA,NA,NA,NA,NA,NA,NA,NA,NA,NA,NA,8,"default","Answer questions about political beliefs, impressions of people, and the meaning of statements
","No",35,"Yes",NA,1,"Male",0,"english","none","-1",0.5,0,0,0,0,0,0,NA,1,"CA","['CA']",NA,NA
3985,"default","closing businesses during COVID was unnecessary","F","block1","F-R-Lily.png","MC","list2","list2_2","list2_D",NA,"Lily","conservative",0,NA,4200,12,"R",2,"lockdown","D",0.75,"block2",0.02,0.74,0.73,0.76,1,10851,36,0.52,"block3",1,11067,39,NA,9,"default","Answer questions about political beliefs, impressions of people, and the meaning of statements
","No",35,"Yes",NA,1,"Male",0,"english","none","-1",0.5,0,0,0,0,0,0,NA,1,"CA","['CA']",NA,NA
3985,"default","it is too easy to buy guns","F","block1","F-R-Sarah.png","critical","list2","list2_2","list2_D","Owen didn't say that","Sarah","liberal",0.45,"say",3069,13,"R",2,"gun_laws","D",0.57,"block2",0,0.57,1,0.65,1,15031,24,0.49,"block3",0,8581,42,NA,10,"default","Answer questions about political beliefs, impressions of people, and the meaning of statements
","No",35,"Yes",NA,1,"Male",0,"english","none","-1",0.5,0,0,0,0,0,0,NA,1,"CA","['CA']",NA,NA
3985,"default","it is too hard to get an abortion","M","block1","M-D-Daniel.png","critical","list2","list2_2","list2_D","Grace isn't right that","Daniel","liberal",0.72,"be_right",3229,14,"D",2,"abortion","D",0.69,"block2",1,0.55,0,0.63,0,10742,32,0.46,"block3",0,22666,41,NA,11,"default","Answer questions about political beliefs, impressions of people, and the meaning of statements
","No",35,"Yes",NA,1,"Male",0,"english","none","-1",0.5,0,0,0,0,0,0,NA,1,"CA","['CA']",NA,NA
3985,"default","mask mandates are unnecessary","F","block1","F-D-Anna.png","critical","list2","list2_2","list2_D","Wendy didn't admit that","Anna","conservative",0.5,"admit",2415,15,"D",2,"masks","D",0.51,"block2",1,0.65,1,0.64,0.02,14631,31,0.53,"block3",1,6039,48,NA,12,"default","Answer questions about political beliefs, impressions of people, and the meaning of statements
","No",35,"Yes",NA,1,"Male",0,"english","none","-1",0.5,0,0,0,0,0,0,NA,1,"CA","['CA']",NA,NA
3985,"default","U.S. presidential elections are held in November",NA,"block1","NA.png","O","list2","list2_2","list2_D",NA,NA,NA,1,NA,3606,16,NA,2,"elections","D",NA,NA,NA,NA,NA,NA,NA,NA,NA,NA,NA,NA,NA,NA,NA,13,"default","Answer questions about political beliefs, impressions of people, and the meaning of statements
","No",35,"Yes",NA,1,"Male",0,"english","none","-1",0.5,0,0,0,0,0,0,NA,1,"CA","['CA']",NA,NA
3985,"default","immigrants support the economy","F","block1","F-R-Kimberly.png","critical","list2","list2_2","list2_D","Ben didn't acknowledge","Kimberly","liberal",0.48,"acknowledge",2615,17,"R",2,"immigrants","D",0.63,"block2",0,0.63,1,0.75,1,12237,25,0.53,"block3",0.54,27496,38,NA,14,"default","Answer questions about political beliefs, impressions of people, and the meaning of statements
","No",35,"Yes",NA,1,"Male",0,"english","none","-1",0.5,0,0,0,0,0,0,NA,1,"CA","['CA']",NA,NA
3985,"default","Trump's policies improved the American economy","M","block1","M-R-Michael.png","critical","list2","list2_2","list2_D","Tony doesn't see that","Michael","conservative",0.48,"see",3496,18,"R",2,"Trump_economy","D",0.55,"block2",0,0.57,0.54,0.54,1,28512,21,0.53,"block3",1,7397,49,NA,15,"default","Answer questions about political beliefs, impressions of people, and the meaning of statements
","No",35,"Yes",NA,1,"Male",0,"english","none","-1",0.5,0,0,0,0,0,0,NA,1,"CA","['CA']",NA,NA
3985,"default","the rich are taxed too much","F","block1","F-D-Rachel.png","MC","list2","list2_2","list2_D",NA,"Rachel","conservative",0.41,NA,2966,19,"D",2,"taxes","D",0.63,"block2",1,0.69,1,0.97,0,11189,33,0.57,"block3",1,5243,43,NA,16,"default","Answer questions about political beliefs, impressions of people, and the meaning of statements
","No",35,"Yes",NA,1,"Male",0,"english","none","-1",0.5,0,0,0,0,0,0,NA,1,"CA","['CA']",NA,NA
3877,"default","Trump handled the pandemic well","M","block1","M-R-Anthony.png","critical","list2","list2_1","list2_D","Danny didn't admit that","Anthony","conservative",0.77,"admit",4852,4,"R",1,"Trump_pandemic","D",0.5,"block2",0,0.46,0.37,0.6,1,16545,32,0.91,"block3",0.81,3968,58,NA,1,"default","perception","No",45,"Yes",NA,4,"Female",2,NA,NA,"Rep",0.83,0,0,0,0,0,0,NA,1,"NY","['NY']",NA,NA
3877,"default","the military is underfunded","M","block1","M-D-James.png","critical","list2","list2_1","list2_D","Emma didn't pretend that","James","conservative",1,"pretend",4506,5,"D",1,"military","D",0.39,"block2",1,0.6,0.49,0.36,0,20725,22,0.13,"block3",0.98,2717,55,NA,2,"default","perception","No",45,"Yes",NA,4,"Female",2,NA,NA,"Rep",0.83,0,0,0,0,0,0,NA,1,"NY","['NY']",NA,NA
3877,"default","the uprising at the Capitol was patriotic","F","block1","F-R-Sarah.png","critical","list2","list2_1","list2_D","Glenn didn't confess that","Sarah","conservative",1,"confess",3192,6,"R",1,"capitol_uprising","D",0.49,"block2",0,0.5,0.62,0.66,1,17610,23,0.67,"block3",0.88,6075,49,NA,3,"default","perception","No",45,"Yes",NA,4,"Female",2,NA,NA,"Rep",0.83,0,0,0,0,0,0,NA,1,"NY","['NY']",NA,NA
3877,"default","the 2020 election was legitimate","F","block1","F-D-Anna.png","critical","list2","list2_1","list2_D","Jen didn't pretend that","Anna","liberal",0.25,"pretend",3186,7,"D",1,"2020_election","D",0.5,"block2",1,0.53,0.4,0.44,0,14659,30,1,"block3",0.78,5539,51,NA,4,"default","perception","No",45,"Yes",NA,4,"Female",2,NA,NA,"Rep",0.83,0,0,0,0,0,0,NA,1,"NY","['NY']",NA,NA
3877,"default","closing businesses during COVID was unnecessary","F","block1","F-R-Lily.png","MC","list2","list2_1","list2_D",NA,"Lily","conservative",0.35,NA,4334,8,"R",1,"lockdown","D",0.51,"block2",0,0.53,0.71,0.64,1,17123,33,1,"block3",1,9647,44,NA,5,"default","perception","No",45,"Yes",NA,4,"Female",2,NA,NA,"Rep",0.83,0,0,0,0,0,0,NA,1,"NY","['NY']",NA,NA
3877,"default","Trump's policies improved the American economy","F","block1","F-R-Donna.png","critical","list2","list2_1","list2_D","Tony didn't say that","Donna","conservative",0.99,"say",2774,9,"R",1,"Trump_economy","D",0.51,"block2",0,0.51,0.61,0.66,1,18199,31,0.77,"block3",0.68,9133,52,NA,6,"default","perception","No",45,"Yes",NA,4,"Female",2,NA,NA,"Rep",0.83,0,0,0,0,0,0,NA,1,"NY","['NY']",NA,NA
3877,"default","it is too hard to get an abortion","F","block1","F-D-Lisa.png","critical","list2","list2_1","list2_D","Grace didn't hear that","Lisa","liberal",0,"hear",3573,10,"D",1,"abortion","D",0.42,"block2",1,0.58,0.38,0.4,0,15536,28,1,"block3",1,7859,40,NA,7,"default","perception","No",45,"Yes",NA,4,"Female",2,NA,NA,"Rep",0.83,0,0,0,0,0,0,NA,1,"NY","['NY']",NA,NA
3877,"default","immigrants support the economy","M","block1","M-R-Ryan.png","critical","list2","list2_1","list2_D","Ben didn't admit that","Ryan","liberal",0.56,"admit",4064,11,"R",1,"immigrants","D",0.51,"block2",0,0.44,0.4,0.57,1,16055,29,0.34,"block3",1,10108,38,NA,8,"default","perception","No",45,"Yes",NA,4,"Female",2,NA,NA,"Rep",0.83,0,0,0,0,0,0,NA,1,"NY","['NY']",NA,NA
3877,"default","the minimum wage is too low","F","block1","F-R-Amy.png","critical","list2","list2_1","list2_D","Ken didn't say that","Amy","liberal",0.19,"say",2958,12,"R",1,"minimum_wage","D",0.54,"block2",0,0.5,0.65,0.68,1,18629,24,0.25,"block3",0.87,3022,59,NA,9,"default","perception","No",45,"Yes",NA,4,"Female",2,NA,NA,"Rep",0.83,0,0,0,0,0,0,NA,1,"NY","['NY']",NA,NA
3877,"default","the capital of the US is in Ohio",NA,"block1","NA.png","O","list2","list2_1","list2_D",NA,NA,NA,0,NA,5917,13,NA,1,"capital","D",NA,NA,NA,NA,NA,NA,NA,NA,NA,NA,NA,NA,NA,NA,NA,10,"default","perception","No",45,"Yes",NA,4,"Female",2,NA,NA,"Rep",0.83,0,0,0,0,0,0,NA,1,"NY","['NY']",NA,NA
3877,"default","U.S. presidential elections are held in November",NA,"block1","NA.png","O","list2","list2_1","list2_D",NA,NA,NA,1,NA,4127,14,NA,1,"elections","D",NA,NA,NA,NA,NA,NA,NA,NA,NA,NA,NA,NA,NA,NA,NA,11,"default","perception","No",45,"Yes",NA,4,"Female",2,NA,NA,"Rep",0.83,0,0,0,0,0,0,NA,1,"NY","['NY']",NA,NA
3877,"default","COVID is an overhyped virus","F","block1","F-D-Michelle.png","critical","list2","list2_1","list2_D","Mary didn't hear that","Michelle","conservative",0.28,"hear",3399,15,"D",1,"COVID","D",0.47,"block2",1,0.63,0.44,0.47,0,33681,21,0.42,"block3",0.99,5917,46,NA,12,"default","perception","No",45,"Yes",NA,4,"Female",2,NA,NA,"Rep",0.83,0,0,0,0,0,0,NA,1,"NY","['NY']",NA,NA
3877,"default","medicaid is underfunded","M","block1","M-D-John.png","critical","list2","list2_1","list2_D","Allison isn't annoyed that","John","liberal",0,"be_annoyed",5019,16,"D",1,"medicaid","D",0.43,"block2",1,0.47,0.57,0.4,0,20731,36,1,"block3",1,5909,54,NA,13,"default","perception","No",45,"Yes",NA,4,"Female",2,NA,NA,"Rep",0.83,0,0,0,0,0,0,NA,1,"NY","['NY']",NA,NA
3877,"default","it is too easy to buy guns","M","block1","M-R-Jason.png","critical","list2","list2_1","list2_D","Owen didn't confess that","Jason","liberal",0,"confess",6267,17,"R",1,"gun_laws","D",0.55,"block2",0,0.45,0.38,0.61,1,23101,27,0.14,"block3",0.89,4885,48,NA,14,"default","perception","No",45,"Yes",NA,4,"Female",2,NA,NA,"Rep",0.83,0,0,0,0,0,0,NA,1,"NY","['NY']",NA,NA
3877,"default","the rich are taxed too much","F","block1","F-D-Veronica.png","MC","list2","list2_1","list2_D",NA,"Veronica","conservative",1,NA,2626,18,"D",1,"taxes","D",0.45,"block2",1,0.48,0.33,0.32,0,20203,35,0,"block3",1,6539,53,NA,15,"default","perception","No",45,"Yes",NA,4,"Female",2,NA,NA,"Rep",0.83,0,0,0,0,0,0,NA,1,"NY","['NY']",NA,NA
3877,"default","mask mandates are unnecessary","M","block1","M-D-Tim.png","critical","list2","list2_1","list2_D","Wendy isn't annoyed that","Tim","conservative",0.33,"be_annoyed",4833,19,"D",1,"masks","D",0.47,"block2",1,0.5,0.55,0.43,0,23240,34,0,"block3",0.96,8691,45,NA,16,"default","perception","No",45,"Yes",NA,4,"Female",2,NA,NA,"Rep",0.83,0,0,0,0,0,0,NA,1,"NY","['NY']",NA,NA
3995,"default","U.S. presidential elections are held in November",NA,"block1","NA.png","O","list2","list2_1","list2_D",NA,NA,NA,0.98,NA,9739,4,NA,1,"elections","D",NA,NA,NA,NA,NA,NA,NA,NA,NA,NA,NA,NA,NA,NA,NA,1,"default","Politic beliefs.","Yes",64,"Yes",NA,2,"Male",1,"None",NA,"Dem",0,0,0,0,0,0,0,NA,1,"MI","['FL', 'WA']","I have a speech impediment that makes me sound like I am from Massachusets or, occasionally, England.",NA
3995,"default","the minimum wage is too low","F","block1","F-R-Sarah.png","critical","list2","list2_1","list2_D","Ken didn't admit that","Sarah","liberal",0.98,"admit",6248,5,"R",1,"minimum_wage","D",0.82,"block2",0,0.64,0.79,0,1,38234,24,0.2,"block3",0.69,20033,43,NA,2,"default","Politic beliefs.","Yes",64,"Yes",NA,2,"Male",1,"None",NA,"Dem",0,0,0,0,0,0,0,NA,1,"MI","['FL', 'WA']","I have a speech impediment that makes me sound like I am from Massachusets or, occasionally, England.",NA
3995,"default","it is too hard to get an abortion","F","block1","F-D-Anna.png","critical","list2","list2_1","list2_D","Grace doesn't know that","Anna","liberal",0.72,"know",7492,6,"D",1,"abortion","D",0.83,"block2",1,0.82,0.81,0.99,0,27607,35,0.83,"block3",0.84,11220,55,NA,3,"default","Politic beliefs.","Yes",64,"Yes",NA,2,"Male",1,"None",NA,"Dem",0,0,0,0,0,0,0,NA,1,"MI","['FL', 'WA']","I have a speech impediment that makes me sound like I am from Massachusets or, occasionally, England.",NA
3995,"default","the military is underfunded","M","block1","M-D-Tim.png","critical","list2","list2_1","list2_D","Emma didn't confess that","Tim","conservative",0.02,"confess",5625,7,"D",1,"military","D",0.81,"block2",1,0.81,0,1,0,40620,23,0,"block3",0.75,10596,58,NA,4,"default","Politic beliefs.","Yes",64,"Yes",NA,2,"Male",1,"None",NA,"Dem",0,0,0,0,0,0,0,NA,1,"MI","['FL', 'WA']","I have a speech impediment that makes me sound like I am from Massachusets or, occasionally, England.",NA
3995,"default","the rich are taxed too much","F","block1","F-D-Rachel.png","MC","list2","list2_1","list2_D",NA,"Rachel","conservative",0.02,NA,4658,8,"D",1,"taxes","D",0.8,"block2",1,0.81,0.8,1,0,33180,34,0,"block3",1,7687,48,NA,5,"default","Politic beliefs.","Yes",64,"Yes",NA,2,"Male",1,"None",NA,"Dem",0,0,0,0,0,0,0,NA,1,"MI","['FL', 'WA']","I have a speech impediment that makes me sound like I am from Massachusets or, occasionally, England.",NA
3995,"default","Trump handled the pandemic well","M","block1","M-R-Joseph.png","critical","list2","list2_1","list2_D","Danny didn't hear that","Joseph","conservative",0,"hear",6300,9,"R",1,"Trump_pandemic","D",0.88,"block2",0,0.71,0,0.13,1,35107,28,1,"block3",0.85,13117,46,NA,6,"default","Politic beliefs.","Yes",64,"Yes",NA,2,"Male",1,"None",NA,"Dem",0,0,0,0,0,0,0,NA,1,"MI","['FL', 'WA']","I have a speech impediment that makes me sound like I am from Massachusets or, occasionally, England.",NA
3995,"default","the 2020 election was legitimate","F","block1","F-D-Helen.png","critical","list2","list2_1","list2_D","Jen didn't confess that","Helen","liberal",1,"confess",7500,10,"D",1,"2020_election","D",0.81,"block2",1,0.81,0.81,1,0,21015,36,1,"block3",0.99,15337,42,NA,7,"default","Politic beliefs.","Yes",64,"Yes",NA,2,"Male",1,"None",NA,"Dem",0,0,0,0,0,0,0,NA,1,"MI","['FL', 'WA']","I have a speech impediment that makes me sound like I am from Massachusets or, occasionally, England.",NA
3995,"default","Trump's policies improved the American economy","F","block1","F-R-Amy.png","critical","list2","list2_1","list2_D","Tony didn't admit that","Amy","conservative",0.57,"admit",8490,11,"R",1,"Trump_economy","D",0.82,"block2",0,0.58,0.83,0.16,1,35445,26,1,"block3",1,18705,39,NA,8,"default","Politic beliefs.","Yes",64,"Yes",NA,2,"Male",1,"None",NA,"Dem",0,0,0,0,0,0,0,NA,1,"MI","['FL', 'WA']","I have a speech impediment that makes me sound like I am from Massachusets or, occasionally, England.",NA
3995,"default","closing businesses during COVID was unnecessary","F","block1","F-R-Lily.png","MC","list2","list2_1","list2_D",NA,"Lily","conservative",0,NA,8115,12,"R",1,"lockdown","D",0.8,"block2",0,0.67,0.79,0.18,1,54727,22,1,"block3",1,7845,57,NA,9,"default","Politic beliefs.","Yes",64,"Yes",NA,2,"Male",1,"None",NA,"Dem",0,0,0,0,0,0,0,NA,1,"MI","['FL', 'WA']","I have a speech impediment that makes me sound like I am from Massachusets or, occasionally, England.",NA
3995,"default","the capital of the US is in Ohio",NA,"block1","NA.png","O","list2","list2_1","list2_D",NA,NA,NA,0,NA,6285,13,NA,1,"capital","D",NA,NA,NA,NA,NA,NA,NA,NA,NA,NA,NA,NA,NA,NA,NA,10,"default","Politic beliefs.","Yes",64,"Yes",NA,2,"Male",1,"None",NA,"Dem",0,0,0,0,0,0,0,NA,1,"MI","['FL', 'WA']","I have a speech impediment that makes me sound like I am from Massachusets or, occasionally, England.",NA
3995,"default","immigrants support the economy","M","block1","M-R-Jason.png","critical","list2","list2_1","list2_D","Ben didn't hear that","Jason","liberal",1,"hear",7005,14,"R",1,"immigrants","D",0.84,"block2",0,0.68,0,0.14,1,31056,29,0,"block3",0.51,7327,59,NA,11,"default","Politic beliefs.","Yes",64,"Yes",NA,2,"Male",1,"None",NA,"Dem",0,0,0,0,0,0,0,NA,1,"MI","['FL', 'WA']","I have a speech impediment that makes me sound like I am from Massachusets or, occasionally, England.",NA
3995,"default","it is too easy to buy guns","M","block1","M-R-Anthony.png","critical","list2","list2_1","list2_D","Owen didn't suggest that","Anthony","liberal",1,"suggest",5573,15,"R",1,"gun_laws","D",0.82,"block2",0,0.65,0,0.15,1,28650,33,0,"block3",0.51,14189,53,NA,12,"default","Politic beliefs.","Yes",64,"Yes",NA,2,"Male",1,"None",NA,"Dem",0,0,0,0,0,0,0,NA,1,"MI","['FL', 'WA']","I have a speech impediment that makes me sound like I am from Massachusets or, occasionally, England.",NA
3995,"default","COVID is an overhyped virus","F","block1","F-D-Elizabeth.png","critical","list2","list2_1","list2_D","Mary doesn't know that","Elizabeth","conservative",0,"know",5512,16,"D",1,"COVID","D",0.65,"block2",1,0.84,0.84,1,0,69017,21,0,"block3",1,7650,51,NA,13,"default","Politic beliefs.","Yes",64,"Yes",NA,2,"Male",1,"None",NA,"Dem",0,0,0,0,0,0,0,NA,1,"MI","['FL', 'WA']","I have a speech impediment that makes me sound like I am from Massachusets or, occasionally, England.",NA
3995,"default","mask mandates are unnecessary","M","block1","M-D-John.png","critical","list2","list2_1","list2_D","Wendy doesn't think that","John","conservative",0,"think",7260,17,"D",1,"masks","D",0.81,"block2",1,0.81,0,1,0,35917,27,0,"block3",0.52,38550,40,NA,14,"default","Politic beliefs.","Yes",64,"Yes",NA,2,"Male",1,"None",NA,"Dem",0,0,0,0,0,0,0,NA,1,"MI","['FL', 'WA']","I have a speech impediment that makes me sound like I am from Massachusets or, occasionally, England.",NA
3995,"default","the uprising at the Capitol was patriotic","F","block1","F-R-Kimberly.png","critical","list2","list2_1","list2_D","Glenn didn't suggest that","Kimberly","conservative",0,"suggest",5340,18,"R",1,"capitol_uprising","D",0.84,"block2",0,0.69,0.8,0.17,1,30443,31,0.81,"block3",0.52,13972,49,NA,15,"default","Politic beliefs.","Yes",64,"Yes",NA,2,"Male",1,"None",NA,"Dem",0,0,0,0,0,0,0,NA,1,"MI","['FL', 'WA']","I have a speech impediment that makes me sound like I am from Massachusets or, occasionally, England.",NA
3995,"default","medicaid is underfunded","M","block1","M-D-Daniel.png","critical","list2","list2_1","list2_D","Allison doesn't think that","Daniel","liberal",1,"think",7117,19,"D",1,"medicaid","D",0.76,"block2",1,0.76,0,1,0,28320,30,1,"block3",0.53,9959,54,NA,16,"default","Politic beliefs.","Yes",64,"Yes",NA,2,"Male",1,"None",NA,"Dem",0,0,0,0,0,0,0,NA,1,"MI","['FL', 'WA']","I have a speech impediment that makes me sound like I am from Massachusets or, occasionally, England.",NA
3918,"default","COVID is a dangerous virus","M","block1","M-D-James.png","critical","list1","list1_2","list1_D","Mary didn't suggest that","James","liberal",0.71,"suggest",5319,4,"D",2,"COVID","D",0.17,"block2",1,0.77,0.25,0.65,0,20931,36,0.86,"block3",0.51,8438,52,NA,1,"default","seeing whether someone's political party affects our perception on what they say and their beliefs based on their words","No",20,"Yes",NA,2,"Female",3,NA,NA,"Dem",0.32,1,0,0,0,0,0,NA,0,"MD","['MD', 'NY']",NA,NA
3918,"default","medicaid is overfunded","F","block1","F-D-Elizabeth.png","critical","list1","list1_2","list1_D","Allison didn't hear that","Elizabeth","conservative",0.18,"hear",3087,5,"D",2,"medicaid","D",0.32,"block2",0.98,0.8,0.72,0.69,0,15799,23,0.18,"block3",1,9869,41,NA,2,"default","seeing whether someone's political party affects our perception on what they say and their beliefs based on their words","No",20,"Yes",NA,2,"Female",3,NA,NA,"Dem",0.32,1,0,0,0,0,0,NA,0,"MD","['MD', 'NY']",NA,NA
3918,"default","mask mandates are necessary","F","block1","F-D-Anna.png","critical","list1","list1_2","list1_D","Wendy didn't hear that","Anna","liberal",0.96,"hear",3059,6,"D",2,"masks","D",0.32,"block2",0,0.63,0.63,0.61,1,17490,26,0.73,"block3",1,5939,47,NA,3,"default","seeing whether someone's political party affects our perception on what they say and their beliefs based on their words","No",20,"Yes",NA,2,"Female",3,NA,NA,"Dem",0.32,1,0,0,0,0,0,NA,0,"MD","['MD', 'NY']",NA,NA
3918,"default","the capital of the US is in Ohio",NA,"block1","NA.png","O","list1","list1_2","list1_D",NA,NA,NA,0.02,NA,3590,7,NA,2,"capital","D",NA,NA,NA,NA,NA,NA,NA,NA,NA,NA,NA,NA,NA,NA,NA,4,"default","seeing whether someone's political party affects our perception on what they say and their beliefs based on their words","No",20,"Yes",NA,2,"Female",3,NA,NA,"Dem",0.32,1,0,0,0,0,0,NA,0,"MD","['MD', 'NY']",NA,NA
3918,"default","Trump's policies damaged the American economy","M","block1","M-R-Anthony.png","critical","list1","list1_2","list1_D","Tony didn't acknowledge","Anthony","liberal",0.63,"acknowledge",9158,8,"R",2,"Trump_economy","D",0.73,"block2",0,0.3,0,0.22,1,20448,31,0.24,"block3",1,63464,54,NA,5,"default","seeing whether someone's political party affects our perception on what they say and their beliefs based on their words","No",20,"Yes",NA,2,"Female",3,NA,NA,"Dem",0.32,1,0,0,0,0,0,NA,0,"MD","['MD', 'NY']",NA,NA
3918,"default","immigrants steal jobs from Americans","F","block1","F-R-Donna.png","critical","list1","list1_2","list1_D","Ben isn't right that","Donna","conservative",0.03,"be_right",4299,9,"R",2,"immigrants","D",0.39,"block2",0.01,0.4,0.4,0.39,0.99,21659,25,0.75,"block3",0,9298,49,NA,6,"default","seeing whether someone's political party affects our perception on what they say and their beliefs based on their words","No",20,"Yes",NA,2,"Female",3,NA,NA,"Dem",0.32,1,0,0,0,0,0,NA,0,"MD","['MD', 'NY']",NA,NA
3918,"default","it is too easy to get an abortion","M","block1","M-D-Tim.png","critical","list1","list1_2","list1_D","Grace didn't suggest that","Tim","conservative",0.03,"suggest",2980,10,"D",2,"abortion","D",0.68,"block2",1,0.68,0.11,0.5,0,24129,27,0.06,"block3",0.5,6229,58,NA,7,"default","seeing whether someone's political party affects our perception on what they say and their beliefs based on their words","No",20,"Yes",NA,2,"Female",3,NA,NA,"Dem",0.32,1,0,0,0,0,0,NA,0,"MD","['MD', 'NY']",NA,NA
3918,"default","the military is overfunded","M","block1","M-D-Daniel.png","critical","list1","list1_2","list1_D","Emma didn't admit that","Daniel","liberal",0.72,"admit",3493,11,"D",2,"military","D",0.8,"block2",1,0.51,0.13,0.58,0,16899,33,0.68,"block3",1,4428,42,NA,8,"default","seeing whether someone's political party affects our perception on what they say and their beliefs based on their words","No",20,"Yes",NA,2,"Female",3,NA,NA,"Dem",0.32,1,0,0,0,0,0,NA,0,"MD","['MD', 'NY']",NA,NA
3918,"default","U.S. presidential elections are held in November",NA,"block1","NA.png","O","list1","list1_2","list1_D",NA,NA,NA,0.77,NA,4215,12,NA,2,"elections","D",NA,NA,NA,NA,NA,NA,NA,NA,NA,NA,NA,NA,NA,NA,NA,9,"default","seeing whether someone's political party affects our perception on what they say and their beliefs based on their words","No",20,"Yes",NA,2,"Female",3,NA,NA,"Dem",0.32,1,0,0,0,0,0,NA,0,"MD","['MD', 'NY']",NA,NA
3918,"default","the minimum wage is too high","M","block1","M-R-Jason.png","critical","list1","list1_2","list1_D","Ken didn't acknowledge","Jason","conservative",0.11,"acknowledge",2989,13,"R",2,"minimum_wage","D",0.71,"block2",0.01,0.33,0.14,0.32,1,25769,22,0.78,"block3",1,3350,45,NA,10,"default","seeing whether someone's political party affects our perception on what they say and their beliefs based on their words","No",20,"Yes",NA,2,"Female",3,NA,NA,"Dem",0.32,1,0,0,0,0,0,NA,0,"MD","['MD', 'NY']",NA,NA
3918,"default","it is too difficult to buy guns","M","block1","M-R-Ryan.png","critical","list1","list1_2","list1_D","Owen didn't pretend that","Ryan","conservative",0.05,"pretend",3440,14,"R",2,"gun_laws","D",1,"block2",0,0.35,0.14,0.68,1,18838,29,0.87,"block3",0,20297,39,NA,11,"default","seeing whether someone's political party affects our perception on what they say and their beliefs based on their words","No",20,"Yes",NA,2,"Female",3,NA,NA,"Dem",0.32,1,0,0,0,0,0,NA,0,"MD","['MD', 'NY']",NA,NA
3918,"default","the uprising at the Capitol was domestic terrorism","F","block1","F-R-Amy.png","critical","list1","list1_2","list1_D","Glenn didn't pretend that","Amy","liberal",0.85,"pretend",2988,15,"R",2,"capitol_uprising","D",0.65,"block2",0.02,0.48,0.65,0.39,0.98,22548,24,0.21,"block3",1,3798,46,NA,12,"default","seeing whether someone's political party affects our perception on what they say and their beliefs based on their words","No",20,"Yes",NA,2,"Female",3,NA,NA,"Dem",0.32,1,0,0,0,0,0,NA,0,"MD","['MD', 'NY']",NA,NA
3918,"default","the rich are taxed too little","F","block1","F-D-Veronica.png","MC","list1","list1_2","list1_D",NA,"Veronica","liberal",0.82,NA,5420,16,"D",2,"taxes","D",0.27,"block2",1,0.83,1,1,0,23980,32,0,"block3",1,7818,59,NA,13,"default","seeing whether someone's political party affects our perception on what they say and their beliefs based on their words","No",20,"Yes",NA,2,"Female",3,NA,NA,"Dem",0.32,1,0,0,0,0,0,NA,0,"MD","['MD', 'NY']",NA,NA
3918,"default","Trump handled the pandemic badly","F","block1","F-R-Kimberly.png","critical","list1","list1_2","list1_D","Danny isn't right that","Kimberly","liberal",0.91,"be_right",4139,17,"R",2,"Trump_pandemic","D",0.81,"block2",0,0.07,0.89,0.22,1,24339,34,0.2,"block3",0,17447,38,NA,14,"default","seeing whether someone's political party affects our perception on what they say and their beliefs based on their words","No",20,"Yes",NA,2,"Female",3,NA,NA,"Dem",0.32,1,0,0,0,0,0,NA,0,"MD","['MD', 'NY']",NA,NA
3918,"default","the 2020 election was rigged","F","block1","F-D-Michelle.png","critical","list1","list1_2","list1_D","Jen didn't admit that","Michelle","conservative",0.08,"admit",5139,18,"D",2,"2020_election","D",0.72,"block2",1,0.73,0.75,0.72,0,20110,28,0,"block3",1,5578,40,NA,15,"default","seeing whether someone's political party affects our perception on what they say and their beliefs based on their words","No",20,"Yes",NA,2,"Female",3,NA,NA,"Dem",0.32,1,0,0,0,0,0,NA,0,"MD","['MD', 'NY']",NA,NA
3918,"default","closing businesses during COVID was necessary","M","block1","M-R-Eric.png","MC","list1","list1_2","list1_D",NA,"Eric","liberal",0.99,NA,6359,19,"R",2,"lockdown","D",0.49,"block2",0,0.32,0.11,0.62,1,25168,35,0,"block3",1,4998,57,NA,16,"default","seeing whether someone's political party affects our perception on what they say and their beliefs based on their words","No",20,"Yes",NA,2,"Female",3,NA,NA,"Dem",0.32,1,0,0,0,0,0,NA,0,"MD","['MD', 'NY']",NA,NA
3952,"default","closing businesses during COVID was unnecessary","F","block1","F-D-Veronica.png","MC","list2","list2_2","list2_R",NA,"Veronica","conservative",0,NA,12335,4,"D",2,"lockdown","R",0.46,"block2",0.98,0.42,0.99,0.42,0,25417,28,0.02,"block3",0.99,19708,52,NA,1,"default","Intriguing","No",37,"Yes",NA,3,"Male",2,"none",NA,"Rep",0.99,0,0,0,0,0,0,NA,1,"NY","['NY']",NA,NA
3952,"default","medicaid is underfunded","M","block1","M-R-Ryan.png","critical","list2","list2_2","list2_R","Allison didn't suggest that","Ryan","liberal",0.02,"suggest",6122,5,"R",2,"medicaid","R",0.55,"block2",0,0.53,0,0.56,0.97,24460,33,0.03,"block3",0.14,32238,50,NA,2,"default","Intriguing","No",37,"Yes",NA,3,"Male",2,"none",NA,"Rep",0.99,0,0,0,0,0,0,NA,1,"NY","['NY']",NA,NA
3952,"default","COVID is an overhyped virus","F","block1","F-R-Sarah.png","critical","list2","list2_2","list2_R","Mary doesn't think that","Sarah","conservative",0.06,"think",2932,6,"R",2,"COVID","R",0.55,"block2",0.01,0.55,0.99,0.6,0.99,22452,31,0.18,"block3",0.2,21485,49,NA,3,"default","Intriguing","No",37,"Yes",NA,3,"Male",2,"none",NA,"Rep",0.99,0,0,0,0,0,0,NA,1,"NY","['NY']",NA,NA
3952,"default","Trump's policies improved the American economy","F","block1","F-D-Helen.png","critical","list2","list2_2","list2_R","Tony doesn't know that","Helen","conservative",0.91,"know",4327,7,"D",2,"Trump_economy","R",0.5,"block2",0.99,0.53,0.95,0.5,0.02,18012,36,0.02,"block3",0.97,17798,45,NA,4,"default","Intriguing","No",37,"Yes",NA,3,"Male",2,"none",NA,"Rep",0.99,0,0,0,0,0,0,NA,1,"NY","['NY']",NA,NA
3952,"default","the rich are taxed too much","M","block1","M-R-Eric.png","MC","list2","list2_2","list2_R",NA,"Eric","conservative",0.03,NA,3413,8,"R",2,"taxes","R",0.43,"block2",0,0.45,0,0.43,1,23876,27,0,"block3",0,14673,59,NA,5,"default","Intriguing","No",37,"Yes",NA,3,"Male",2,"none",NA,"Rep",0.99,0,0,0,0,0,0,NA,1,"NY","['NY']",NA,NA
3952,"default","the 2020 election was legitimate","F","block1","F-R-Amy.png","critical","list2","list2_2","list2_R","Jen didn't hear that","Amy","liberal",0.01,"hear",4086,9,"R",2,"2020_election","R",0.73,"block2",0,0.76,0.7,0.69,0.99,54881,21,0.1,"block3",0.99,9922,56,NA,6,"default","Intriguing","No",37,"Yes",NA,3,"Male",2,"none",NA,"Rep",0.99,0,0,0,0,0,0,NA,1,"NY","['NY']",NA,NA
3952,"default","the military is underfunded","M","block1","M-R-Michael.png","critical","list2","list2_2","list2_R","Emma didn't hear that","Michael","conservative",0.05,"hear",2731,10,"R",2,"military","R",0.62,"block2",0.01,0.61,0.06,0.62,0.98,30294,29,0,"block3",0.98,8021,57,NA,7,"default","Intriguing","No",37,"Yes",NA,3,"Male",2,"none",NA,"Rep",0.99,0,0,0,0,0,0,NA,1,"NY","['NY']",NA,NA
3952,"default","it is too easy to buy guns","M","block1","M-D-John.png","critical","list2","list2_2","list2_R","Owen isn't annoyed that","John","liberal",0.72,"be_annoyed",3021,11,"D",2,"gun_laws","R",0.49,"block2",0.98,0.48,0.02,0.44,0,22086,34,0.86,"block3",0.91,17894,40,NA,8,"default","Intriguing","No",37,"Yes",NA,3,"Male",2,"none",NA,"Rep",0.99,0,0,0,0,0,0,NA,1,"NY","['NY']",NA,NA
3952,"default","mask mandates are unnecessary","M","block1","M-R-Joseph.png","critical","list2","list2_2","list2_R","Wendy didn't suggest that","Joseph","conservative",0.72,"suggest",3670,12,"R",2,"masks","R",0.69,"block2",0.01,0.69,0.02,0.71,0.99,20706,25,0.33,"block3",0.49,25937,54,NA,9,"default","Intriguing","No",37,"Yes",NA,3,"Male",2,"none",NA,"Rep",0.99,0,0,0,0,0,0,NA,1,"NY","['NY']",NA,NA
3952,"default","it is too hard to get an abortion","F","block1","F-R-Kimberly.png","critical","list2","list2_2","list2_R","Grace doesn't think that","Kimberly","liberal",0.5,"think",4695,13,"R",2,"abortion","R",0.53,"block2",0.01,0.54,0.52,0.52,0.98,21854,32,0.29,"block3",0.73,10527,58,NA,10,"default","Intriguing","No",37,"Yes",NA,3,"Male",2,"none",NA,"Rep",0.99,0,0,0,0,0,0,NA,1,"NY","['NY']",NA,NA
3952,"default","the capital of the US is in Ohio",NA,"block1","NA.png","O","list2","list2_2","list2_R",NA,NA,NA,0,NA,10400,14,NA,2,"capital","R",NA,NA,NA,NA,NA,NA,NA,NA,NA,NA,NA,NA,NA,NA,NA,11,"default","Intriguing","No",37,"Yes",NA,3,"Male",2,"none",NA,"Rep",0.99,0,0,0,0,0,0,NA,1,"NY","['NY']",NA,NA
3952,"default","the uprising at the Capitol was patriotic","F","block1","F-D-Michelle.png","critical","list2","list2_2","list2_R","Glenn isn't annoyed that","Michelle","conservative",0.01,"be_annoyed",4215,15,"D",2,"capitol_uprising","R",0.48,"block2",0.98,0.51,0.93,0.48,0.01,21449,35,0.04,"block3",0.97,32654,55,NA,12,"default","Intriguing","No",37,"Yes",NA,3,"Male",2,"none",NA,"Rep",0.99,0,0,0,0,0,0,NA,1,"NY","['NY']",NA,NA
3952,"default","immigrants support the economy","M","block1","M-D-Daniel.png","critical","list2","list2_2","list2_R","Ben isn't right that","Daniel","liberal",0.41,"be_right",4131,16,"D",2,"immigrants","R",0.46,"block2",0.98,0.49,0.02,0.45,0.01,22190,26,0.5,"block3",0.02,28702,42,NA,13,"default","Intriguing","No",37,"Yes",NA,3,"Male",2,"none",NA,"Rep",0.99,0,0,0,0,0,0,NA,1,"NY","['NY']",NA,NA
3952,"default","the minimum wage is too low","F","block1","F-D-Anna.png","critical","list2","list2_2","list2_R","Ken doesn't know that","Anna","liberal",0.48,"know",3526,17,"D",2,"minimum_wage","R",0.53,"block2",1,0.33,0.67,0.39,0,30839,22,0.77,"block3",0.95,44168,43,NA,14,"default","Intriguing","No",37,"Yes",NA,3,"Male",2,"none",NA,"Rep",0.99,0,0,0,0,0,0,NA,1,"NY","['NY']",NA,NA
3952,"default","Trump handled the pandemic well","M","block1","M-D-James.png","critical","list2","list2_2","list2_R","Danny isn't right that","James","conservative",0.65,"be_right",2642,18,"D",2,"Trump_pandemic","R",0.44,"block2",0.98,0.41,0.02,0.4,0,25895,23,0.04,"block3",0.01,19431,48,NA,15,"default","Intriguing","No",37,"Yes",NA,3,"Male",2,"none",NA,"Rep",0.99,0,0,0,0,0,0,NA,1,"NY","['NY']",NA,NA
3952,"default","U.S. presidential elections are held in November",NA,"block1","NA.png","O","list2","list2_2","list2_R",NA,NA,NA,1,NA,4590,19,NA,2,"elections","R",NA,NA,NA,NA,NA,NA,NA,NA,NA,NA,NA,NA,NA,NA,NA,16,"default","Intriguing","No",37,"Yes",NA,3,"Male",2,"none",NA,"Rep",0.99,0,0,0,0,0,0,NA,1,"NY","['NY']",NA,NA
3772,"default","the uprising at the Capitol was patriotic","M","block1","M-R-Anthony.png","critical","list2","list2_2","list2_D","Glenn didn't admit that","Anthony","conservative",0,"admit",6494,4,"R",2,"capitol_uprising","D",0.77,"block2",0.12,0.11,0.51,0.13,1,27763,32,0.94,"block3",0.91,7757,49,NA,1,"default","not sure","Yes",59,"Yes","The 3rd part was super confusing. I am not sure I did it right. WTF?",3,"Female",4,NA,NA,"Dem",0,0,0,0,0,0,0,NA,1,"UT","['NH', 'SC', 'UT']","Idaho",NA
3772,"default","Trump handled the pandemic well","M","block1","M-R-Jason.png","critical","list2","list2_2","list2_D","Danny didn't confess that","Jason","conservative",0,"confess",3257,5,"R",2,"Trump_pandemic","D",0.63,"block2",0.29,0.27,0.47,0.18,0.98,25400,23,0.99,"block3",0.53,10022,40,NA,2,"default","not sure","Yes",59,"Yes","The 3rd part was super confusing. I am not sure I did it right. WTF?",3,"Female",4,NA,NA,"Dem",0,0,0,0,0,0,0,NA,1,"UT","['NH', 'SC', 'UT']","Idaho",NA
3772,"default","immigrants support the economy","M","block1","M-R-Michael.png","critical","list2","list2_2","list2_D","Ben didn't confess that","Michael","liberal",0.99,"confess",5429,6,"R",2,"immigrants","D",0.55,"block2",0.45,0.03,0.5,0.35,0.99,42222,21,0,"block3",0.35,11309,48,NA,3,"default","not sure","Yes",59,"Yes","The 3rd part was super confusing. I am not sure I did it right. WTF?",3,"Female",4,NA,NA,"Dem",0,0,0,0,0,0,0,NA,1,"UT","['NH', 'SC', 'UT']","Idaho",NA
3772,"default","U.S. presidential elections are held in November",NA,"block1","NA.png","O","list2","list2_2","list2_D",NA,NA,NA,1,NA,4297,7,NA,2,"elections","D",NA,NA,NA,NA,NA,NA,NA,NA,NA,NA,NA,NA,NA,NA,NA,4,"default","not sure","Yes",59,"Yes","The 3rd part was super confusing. I am not sure I did it right. WTF?",3,"Female",4,NA,NA,"Dem",0,0,0,0,0,0,0,NA,1,"UT","['NH', 'SC', 'UT']","Idaho",NA
3772,"default","the minimum wage is too low","F","block1","F-R-Sarah.png","critical","list2","list2_2","list2_D","Ken doesn't think that","Sarah","liberal",1,"think",3776,8,"R",2,"minimum_wage","D",0.6,"block2",0.26,0.16,0.56,0.33,1,20933,26,0.12,"block3",0.62,2580,43,NA,5,"default","not sure","Yes",59,"Yes","The 3rd part was super confusing. I am not sure I did it right. WTF?",3,"Female",4,NA,NA,"Dem",0,0,0,0,0,0,0,NA,1,"UT","['NH', 'SC', 'UT']","Idaho",NA
3772,"default","COVID is an overhyped virus","F","block1","F-D-Elizabeth.png","critical","list2","list2_2","list2_D","Mary didn't say that","Elizabeth","conservative",0,"say",4348,9,"D",2,"COVID","D",0.53,"block2",1,0.83,0.84,0.68,0.26,34210,22,0.22,"block3",0.24,13217,56,NA,6,"default","not sure","Yes",59,"Yes","The 3rd part was super confusing. I am not sure I did it right. WTF?",3,"Female",4,NA,NA,"Dem",0,0,0,0,0,0,0,NA,1,"UT","['NH', 'SC', 'UT']","Idaho",NA
3772,"default","Trump's policies improved the American economy","F","block1","F-R-Kimberly.png","critical","list2","list2_2","list2_D","Tony doesn't think that","Kimberly","conservative",0,"think",7317,10,"R",2,"Trump_economy","D",0.53,"block2",0.28,0.17,0.58,0.19,1,16839,28,0.93,"block3",0.85,13680,51,NA,7,"default","not sure","Yes",59,"Yes","The 3rd part was super confusing. I am not sure I did it right. WTF?",3,"Female",4,NA,NA,"Dem",0,0,0,0,0,0,0,NA,1,"UT","['NH', 'SC', 'UT']","Idaho",NA
3772,"default","the 2020 election was legitimate","M","block1","M-D-Daniel.png","critical","list2","list2_2","list2_D","Jen isn't annoyed that","Daniel","liberal",0.99,"be_annoyed",3735,11,"D",2,"2020_election","D",0.56,"block2",0.97,0.84,0.55,0.83,0.16,22017,30,0.96,"block3",0.54,14096,39,NA,8,"default","not sure","Yes",59,"Yes","The 3rd part was super confusing. I am not sure I did it right. WTF?",3,"Female",4,NA,NA,"Dem",0,0,0,0,0,0,0,NA,1,"UT","['NH', 'SC', 'UT']","Idaho",NA
3772,"default","it is too easy to buy guns","F","block1","F-R-Amy.png","critical","list2","list2_2","list2_D","Owen didn't admit that","Amy","liberal",1,"admit",3828,12,"R",2,"gun_laws","D",0.51,"block2",0.25,0.16,0.53,0.22,1,23445,27,0.04,"block3",0.53,6491,42,NA,9,"default","not sure","Yes",59,"Yes","The 3rd part was super confusing. I am not sure I did it right. WTF?",3,"Female",4,NA,NA,"Dem",0,0,0,0,0,0,0,NA,1,"UT","['NH', 'SC', 'UT']","Idaho",NA
3772,"default","it is too hard to get an abortion","F","block1","F-D-Anna.png","critical","list2","list2_2","list2_D","Grace didn't say that","Anna","liberal",0.89,"say",5011,13,"D",2,"abortion","D",0.61,"block2",0.98,0.83,0.57,0.8,0.09,19045,36,0.85,"block3",0.47,2724,58,NA,10,"default","not sure","Yes",59,"Yes","The 3rd part was super confusing. I am not sure I did it right. WTF?",3,"Female",4,NA,NA,"Dem",0,0,0,0,0,0,0,NA,1,"UT","['NH', 'SC', 'UT']","Idaho",NA
3772,"default","medicaid is underfunded","M","block1","M-D-John.png","critical","list2","list2_2","list2_D","Allison didn't pretend that","John","liberal",1,"pretend",3876,14,"D",2,"medicaid","D",0.53,"block2",0.96,0.84,0.52,0.81,0.17,19118,31,0.99,"block3",0.67,9267,47,NA,11,"default","not sure","Yes",59,"Yes","The 3rd part was super confusing. I am not sure I did it right. WTF?",3,"Female",4,NA,NA,"Dem",0,0,0,0,0,0,0,NA,1,"UT","['NH', 'SC', 'UT']","Idaho",NA
3772,"default","mask mandates are unnecessary","M","block1","M-D-Tim.png","critical","list2","list2_2","list2_D","Wendy didn't pretend that","Tim","conservative",0,"pretend",4316,15,"D",2,"masks","D",0.58,"block2",0.97,0.85,0.57,0.78,0.15,19719,35,0.05,"block3",0.29,9338,54,NA,12,"default","not sure","Yes",59,"Yes","The 3rd part was super confusing. I am not sure I did it right. WTF?",3,"Female",4,NA,NA,"Dem",0,0,0,0,0,0,0,NA,1,"UT","['NH', 'SC', 'UT']","Idaho",NA
3772,"default","closing businesses during COVID was unnecessary","F","block1","F-R-Lily.png","MC","list2","list2_2","list2_D",NA,"Lily","conservative",0,NA,4184,16,"R",2,"lockdown","D",0.55,"block2",0.21,0.25,0.57,0.3,0.97,30856,33,0.96,"block3",0.9,6624,50,NA,13,"default","not sure","Yes",59,"Yes","The 3rd part was super confusing. I am not sure I did it right. WTF?",3,"Female",4,NA,NA,"Dem",0,0,0,0,0,0,0,NA,1,"UT","['NH', 'SC', 'UT']","Idaho",NA
3772,"default","the military is underfunded","F","block1","F-D-Helen.png","critical","list2","list2_2","list2_D","Emma isn't annoyed that","Helen","conservative",0,"be_annoyed",4418,17,"D",2,"military","D",0.57,"block2",0.97,0.86,0.53,0.82,0.14,30202,34,0.08,"block3",0.51,17146,57,NA,14,"default","not sure","Yes",59,"Yes","The 3rd part was super confusing. I am not sure I did it right. WTF?",3,"Female",4,NA,NA,"Dem",0,0,0,0,0,0,0,NA,1,"UT","['NH', 'SC', 'UT']","Idaho",NA
3772,"default","the rich are taxed too much","F","block1","F-D-Veronica.png","MC","list2","list2_2","list2_D",NA,"Veronica","conservative",0,NA,3622,18,"D",2,"taxes","D",0.57,"block2",0.99,0.81,0.57,0.74,0.31,23115,25,0.03,"block3",0.18,13754,38,NA,15,"default","not sure","Yes",59,"Yes","The 3rd part was super confusing. I am not sure I did it right. WTF?",3,"Female",4,NA,NA,"Dem",0,0,0,0,0,0,0,NA,1,"UT","['NH', 'SC', 'UT']","Idaho",NA
3772,"default","the capital of the US is in Ohio",NA,"block1","NA.png","O","list2","list2_2","list2_D",NA,NA,NA,0,NA,4744,19,NA,2,"capital","D",NA,NA,NA,NA,NA,NA,NA,NA,NA,NA,NA,NA,NA,NA,NA,16,"default","not sure","Yes",59,"Yes","The 3rd part was super confusing. I am not sure I did it right. WTF?",3,"Female",4,NA,NA,"Dem",0,0,0,0,0,0,0,NA,1,"UT","['NH', 'SC', 'UT']","Idaho",NA
3925,"default","the minimum wage is too high","M","block1","M-R-Ryan.png","critical","list1","list1_2","list1_D","Ken didn't hear that","Ryan","conservative",0.31,"hear",11818,4,"R",2,"minimum_wage","D",0.66,"block2",0.02,0.54,0.43,0.54,0.98,33991,32,0.8,"block3",0.61,10278,55,NA,1,"default","Studying how people perceive others' in terms of political issues and their personal qualities","Yes",47,"Yes","I am a never-Trump conservative",3,"Male",1,NA,"Independent","Other",0.74,0,0,0,0,0,0,NA,1,"AL","['AL']","Southern",NA
3925,"default","the rich are taxed too little","F","block1","F-D-Rachel.png","MC","list1","list1_2","list1_D",NA,"Rachel","liberal",0.68,NA,6833,5,"D",2,"taxes","D",0.62,"block2",0.98,0.7,0.7,0.74,0.03,45529,23,0.94,"block3",0.8,11687,39,NA,2,"default","Studying how people perceive others' in terms of political issues and their personal qualities","Yes",47,"Yes","I am a never-Trump conservative",3,"Male",1,NA,"Independent","Other",0.74,0,0,0,0,0,0,NA,1,"AL","['AL']","Southern",NA
3925,"default","Trump handled the pandemic badly","F","block1","F-R-Kimberly.png","critical","list1","list1_2","list1_D","Danny didn't pretend that","Kimberly","liberal",0.98,"pretend",5319,6,"R",2,"Trump_pandemic","D",0.72,"block2",0.03,0.5,0.75,0.47,0.97,45160,25,0.15,"block3",0.49,14403,54,NA,3,"default","Studying how people perceive others' in terms of political issues and their personal qualities","Yes",47,"Yes","I am a never-Trump conservative",3,"Male",1,NA,"Independent","Other",0.74,0,0,0,0,0,0,NA,1,"AL","['AL']","Southern",NA
3925,"default","the uprising at the Capitol was domestic terrorism","F","block1","F-R-Amy.png","critical","list1","list1_2","list1_D","Glenn doesn't see that","Amy","liberal",1,"see",4775,7,"R",2,"capitol_uprising","D",0.61,"block2",0.03,0.53,0.65,0.54,0.98,37360,31,0.18,"block3",0.67,27454,59,NA,4,"default","Studying how people perceive others' in terms of political issues and their personal qualities","Yes",47,"Yes","I am a never-Trump conservative",3,"Male",1,NA,"Independent","Other",0.74,0,0,0,0,0,0,NA,1,"AL","['AL']","Southern",NA
3925,"default","COVID is a dangerous virus","M","block1","M-D-John.png","critical","list1","list1_2","list1_D","Mary didn't confess that","John","liberal",0.99,"confess",3710,8,"D",2,"COVID","D",0.71,"block2",0.99,0.82,0.35,0.83,0.03,55872,21,0.94,"block3",0.61,14167,56,NA,5,"default","Studying how people perceive others' in terms of political issues and their personal qualities","Yes",47,"Yes","I am a never-Trump conservative",3,"Male",1,NA,"Independent","Other",0.74,0,0,0,0,0,0,NA,1,"AL","['AL']","Southern",NA
3925,"default","the 2020 election was rigged","F","block1","F-D-Michelle.png","critical","list1","list1_2","list1_D","Jen doesn't know that","Michelle","conservative",0.02,"know",4609,9,"D",2,"2020_election","D",0.66,"block2",0.98,0.71,0.72,0.71,0.03,32949,35,0.1,"block3",0.56,17411,52,NA,6,"default","Studying how people perceive others' in terms of political issues and their personal qualities","Yes",47,"Yes","I am a never-Trump conservative",3,"Male",1,NA,"Independent","Other",0.74,0,0,0,0,0,0,NA,1,"AL","['AL']","Southern",NA
3925,"default","the capital of the US is in Ohio",NA,"block1","NA.png","O","list1","list1_2","list1_D",NA,NA,NA,0.02,NA,7240,10,NA,2,"capital","D",NA,NA,NA,NA,NA,NA,NA,NA,NA,NA,NA,NA,NA,NA,NA,7,"default","Studying how people perceive others' in terms of political issues and their personal qualities","Yes",47,"Yes","I am a never-Trump conservative",3,"Male",1,NA,"Independent","Other",0.74,0,0,0,0,0,0,NA,1,"AL","['AL']","Southern",NA
3925,"default","closing businesses during COVID was necessary","M","block1","M-R-Eric.png","MC","list1","list1_2","list1_D",NA,"Eric","liberal",0.92,NA,5680,11,"R",2,"lockdown","D",0.65,"block2",0.02,0.57,0.24,0.54,0.97,31637,30,0.15,"block3",0.88,9023,46,NA,8,"default","Studying how people perceive others' in terms of political issues and their personal qualities","Yes",47,"Yes","I am a never-Trump conservative",3,"Male",1,NA,"Independent","Other",0.74,0,0,0,0,0,0,NA,1,"AL","['AL']","Southern",NA
3925,"default","immigrants steal jobs from Americans","F","block1","F-R-Sarah.png","critical","list1","list1_2","list1_D","Ben didn't pretend that","Sarah","conservative",0.07,"pretend",4124,12,"R",2,"immigrants","D",0.61,"block2",0,0.58,0.7,0.54,0.98,42033,28,0.92,"block3",0.67,25289,44,NA,9,"default","Studying how people perceive others' in terms of political issues and their personal qualities","Yes",47,"Yes","I am a never-Trump conservative",3,"Male",1,NA,"Independent","Other",0.74,0,0,0,0,0,0,NA,1,"AL","['AL']","Southern",NA
3925,"default","medicaid is overfunded","F","block1","F-D-Anna.png","critical","list1","list1_2","list1_D","Allison didn't admit that","Anna","conservative",0.18,"admit",4472,13,"D",2,"medicaid","D",0.68,"block2",0.97,0.74,0.75,0.76,0,41513,36,0.07,"block3",0.38,19025,57,NA,10,"default","Studying how people perceive others' in terms of political issues and their personal qualities","Yes",47,"Yes","I am a never-Trump conservative",3,"Male",1,NA,"Independent","Other",0.74,0,0,0,0,0,0,NA,1,"AL","['AL']","Southern",NA
3925,"default","the military is overfunded","M","block1","M-D-Tim.png","critical","list1","list1_2","list1_D","Emma doesn't know that","Tim","liberal",0.49,"know",5622,14,"D",2,"military","D",0.62,"block2",0.98,0.71,0.52,0.7,0.02,36039,33,0.77,"block3",0.75,13583,42,NA,11,"default","Studying how people perceive others' in terms of political issues and their personal qualities","Yes",47,"Yes","I am a never-Trump conservative",3,"Male",1,NA,"Independent","Other",0.74,0,0,0,0,0,0,NA,1,"AL","['AL']","Southern",NA
3925,"default","mask mandates are necessary","F","block1","F-D-Helen.png","critical","list1","list1_2","list1_D","Wendy didn't admit that","Helen","liberal",0.83,"admit",5600,15,"D",2,"masks","D",0.64,"block2",0.98,0.79,0.82,0.79,0.01,38896,24,0.82,"block3",0.61,17182,48,NA,12,"default","Studying how people perceive others' in terms of political issues and their personal qualities","Yes",47,"Yes","I am a never-Trump conservative",3,"Male",1,NA,"Independent","Other",0.74,0,0,0,0,0,0,NA,1,"AL","['AL']","Southern",NA
3925,"default","Trump's policies damaged the American economy","M","block1","M-R-Michael.png","critical","list1","list1_2","list1_D","Tony didn't hear that","Michael","liberal",0.97,"hear",4730,16,"R",2,"Trump_economy","D",0.69,"block2",0.03,0.49,0.46,0.51,0.98,29697,34,0.2,"block3",0.54,21407,47,NA,13,"default","Studying how people perceive others' in terms of political issues and their personal qualities","Yes",47,"Yes","I am a never-Trump conservative",3,"Male",1,NA,"Independent","Other",0.74,0,0,0,0,0,0,NA,1,"AL","['AL']","Southern",NA
3925,"default","it is too easy to get an abortion","M","block1","M-D-Daniel.png","critical","list1","list1_2","list1_D","Grace didn't confess that","Daniel","conservative",0.75,"confess",5599,17,"D",2,"abortion","D",0.67,"block2",0.99,0.7,0.22,0.68,0,42859,29,0.12,"block3",0.45,33510,41,NA,14,"default","Studying how people perceive others' in terms of political issues and their personal qualities","Yes",47,"Yes","I am a never-Trump conservative",3,"Male",1,NA,"Independent","Other",0.74,0,0,0,0,0,0,NA,1,"AL","['AL']","Southern",NA
3925,"default","it is too difficult to buy guns","M","block1","M-R-Jason.png","critical","list1","list1_2","list1_D","Owen doesn't see that","Jason","conservative",0.05,"see",5348,18,"R",2,"gun_laws","D",0.66,"block2",0.03,0.34,0.45,0.36,0.98,51182,22,0.84,"block3",0.85,29567,40,NA,15,"default","Studying how people perceive others' in terms of political issues and their personal qualities","Yes",47,"Yes","I am a never-Trump conservative",3,"Male",1,NA,"Independent","Other",0.74,0,0,0,0,0,0,NA,1,"AL","['AL']","Southern",NA
3925,"default","U.S. presidential elections are held in November",NA,"block1","NA.png","O","list1","list1_2","list1_D",NA,NA,NA,0.99,NA,4460,19,NA,2,"elections","D",NA,NA,NA,NA,NA,NA,NA,NA,NA,NA,NA,NA,NA,NA,NA,16,"default","Studying how people perceive others' in terms of political issues and their personal qualities","Yes",47,"Yes","I am a never-Trump conservative",3,"Male",1,NA,"Independent","Other",0.74,0,0,0,0,0,0,NA,1,"AL","['AL']","Southern",NA
3937,"default","it is too easy to get an abortion","M","block1","M-R-Joseph.png","critical","list1","list1_2","list1_R","Grace didn't say that","Joseph","conservative",0.09,"say",7957,4,"R",2,"abortion","R",0.53,"block2",0.15,0.79,0.15,0.78,0.83,37306,30,0.3,"block3",0.51,6853,53,NA,1,"default","how we interpret people's views","No",63,"Yes",NA,3,"Female",2,"none",NA,"Rep",0.72,0,0,0,0,0,0,NA,1,"FL","['MA']","none",NA
3937,"default","the 2020 election was rigged","M","block1","M-R-Michael.png","critical","list1","list1_2","list1_R","Jen didn't pretend that","Michael","conservative",0.01,"pretend",4048,5,"R",2,"2020_election","R",0.52,"block2",0.13,0.81,0.16,0.82,0.83,28547,25,0.25,"block3",0.5,16938,41,NA,2,"default","how we interpret people's views","No",63,"Yes",NA,3,"Female",2,"none",NA,"Rep",0.72,0,0,0,0,0,0,NA,1,"FL","['MA']","none",NA
3937,"default","the rich are taxed too little","F","block1","F-R-Lily.png","MC","list1","list1_2","list1_R",NA,"Lily","liberal",0,NA,7062,6,"R",2,"taxes","R",0.51,"block2",0.14,0.75,0.73,0.76,0.86,25717,24,0.71,"block3",0.69,15476,39,NA,3,"default","how we interpret people's views","No",63,"Yes",NA,3,"Female",2,"none",NA,"Rep",0.72,0,0,0,0,0,0,NA,1,"FL","['MA']","none",NA
3937,"default","Trump's policies damaged the American economy","M","block1","M-D-Tim.png","critical","list1","list1_2","list1_R","Tony didn't admit that","Tim","liberal",0.06,"admit",8597,7,"D",2,"Trump_economy","R",0.53,"block2",0.81,0.79,0.2,0.73,0.15,24951,26,0.96,"block3",0.83,14961,43,NA,4,"default","how we interpret people's views","No",63,"Yes",NA,3,"Female",2,"none",NA,"Rep",0.72,0,0,0,0,0,0,NA,1,"FL","['MA']","none",NA
3937,"default","mask mandates are necessary","F","block1","F-R-Sarah.png","critical","list1","list1_2","list1_R","Wendy isn't annoyed that","Sarah","liberal",0.15,"be_annoyed",9011,8,"R",2,"masks","R",0.52,"block2",0.12,0.77,0.77,0.77,0.79,19995,29,0.5,"block3",0.5,6945,59,NA,5,"default","how we interpret people's views","No",63,"Yes",NA,3,"Female",2,"none",NA,"Rep",0.72,0,0,0,0,0,0,NA,1,"FL","['MA']","none",NA
3937,"default","Trump handled the pandemic badly","F","block1","F-D-Elizabeth.png","critical","list1","list1_2","list1_R","Danny isn't right that","Elizabeth","liberal",0.39,"be_right",6966,9,"D",2,"Trump_pandemic","R",0.51,"block2",0.81,0.81,0.76,0.8,0.12,22222,32,0.98,"block3",0.18,9997,44,NA,6,"default","how we interpret people's views","No",63,"Yes",NA,3,"Female",2,"none",NA,"Rep",0.72,0,0,0,0,0,0,NA,1,"FL","['MA']","none",NA
3937,"default","it is too difficult to buy guns","F","block1","F-D-Helen.png","critical","list1","list1_2","list1_R","Owen doesn't know that","Helen","conservative",0.05,"know",6979,10,"D",2,"gun_laws","R",0.52,"block2",0.82,0.79,0.78,0.77,0.16,26450,35,0.02,"block3",0.82,8682,55,NA,7,"default","how we interpret people's views","No",63,"Yes",NA,3,"Female",2,"none",NA,"Rep",0.72,0,0,0,0,0,0,NA,1,"FL","['MA']","none",NA
3937,"default","the minimum wage is too high","M","block1","M-D-Daniel.png","critical","list1","list1_2","list1_R","Ken didn't admit that","Daniel","conservative",0.07,"admit",4264,11,"D",2,"minimum_wage","R",0.53,"block2",0.82,0.78,0.21,0.75,0.15,32808,23,0.85,"block3",0.81,11163,56,NA,8,"default","how we interpret people's views","No",63,"Yes",NA,3,"Female",2,"none",NA,"Rep",0.72,0,0,0,0,0,0,NA,1,"FL","['MA']","none",NA
3937,"default","the uprising at the Capitol was domestic terrorism","M","block1","M-D-John.png","critical","list1","list1_2","list1_R","Glenn doesn't know that","John","liberal",0.07,"know",7581,12,"D",2,"capitol_uprising","R",0.5,"block2",0.89,0.76,0.14,0.78,0.15,21537,34,0.97,"block3",0.84,24960,49,NA,9,"default","how we interpret people's views","No",63,"Yes",NA,3,"Female",2,"none",NA,"Rep",0.72,0,0,0,0,0,0,NA,1,"FL","['MA']","none",NA
3937,"default","COVID is a dangerous virus","M","block1","M-R-Ryan.png","critical","list1","list1_2","list1_R","Mary didn't say that","Ryan","liberal",0.92,"say",3763,13,"R",2,"COVID","R",0.53,"block2",0.12,0.75,0.52,0.73,0.79,36513,21,0.8,"block3",0.5,8367,52,NA,10,"default","how we interpret people's views","No",63,"Yes",NA,3,"Female",2,"none",NA,"Rep",0.72,0,0,0,0,0,0,NA,1,"FL","['MA']","none",NA
3937,"default","the military is overfunded","F","block1","F-R-Amy.png","critical","list1","list1_2","list1_R","Emma didn't pretend that","Amy","liberal",0.81,"pretend",4677,14,"R",2,"military","R",0.5,"block2",0.1,0.76,0.76,0.75,0.83,47239,36,0.39,"block3",0.26,9582,46,NA,11,"default","how we interpret people's views","No",63,"Yes",NA,3,"Female",2,"none",NA,"Rep",0.72,0,0,0,0,0,0,NA,1,"FL","['MA']","none",NA
3937,"default","U.S. presidential elections are held in November",NA,"block1","NA.png","O","list1","list1_2","list1_R",NA,NA,NA,0.94,NA,4050,15,NA,2,"elections","R",NA,NA,NA,NA,NA,NA,NA,NA,NA,NA,NA,NA,NA,NA,NA,12,"default","how we interpret people's views","No",63,"Yes",NA,3,"Female",2,"none",NA,"Rep",0.72,0,0,0,0,0,0,NA,1,"FL","['MA']","none",NA
3937,"default","medicaid is overfunded","F","block1","F-R-Kimberly.png","critical","list1","list1_2","list1_R","Allison isn't annoyed that","Kimberly","conservative",0.11,"be_annoyed",3368,16,"R",2,"medicaid","R",0.5,"block2",0.09,0.75,0.77,0.78,0.86,27531,27,0.36,"block3",0.9,8107,51,NA,13,"default","how we interpret people's views","No",63,"Yes",NA,3,"Female",2,"none",NA,"Rep",0.72,0,0,0,0,0,0,NA,1,"FL","['MA']","none",NA
3937,"default","closing businesses during COVID was necessary","F","block1","F-D-Rachel.png","MC","list1","list1_2","list1_R",NA,"Rachel","liberal",0.48,NA,5382,17,"D",2,"lockdown","R",0.51,"block2",0.83,0.74,0.74,0.75,0.21,38156,22,0.8,"block3",0.88,6126,58,NA,14,"default","how we interpret people's views","No",63,"Yes",NA,3,"Female",2,"none",NA,"Rep",0.72,0,0,0,0,0,0,NA,1,"FL","['MA']","none",NA
3937,"default","the capital of the US is in Ohio",NA,"block1","NA.png","O","list1","list1_2","list1_R",NA,NA,NA,0.04,NA,3861,18,NA,2,"capital","R",NA,NA,NA,NA,NA,NA,NA,NA,NA,NA,NA,NA,NA,NA,NA,15,"default","how we interpret people's views","No",63,"Yes",NA,3,"Female",2,"none",NA,"Rep",0.72,0,0,0,0,0,0,NA,1,"FL","['MA']","none",NA
3937,"default","immigrants steal jobs from Americans","F","block1","F-D-Anna.png","critical","list1","list1_2","list1_R","Ben isn't right that","Anna","conservative",0,"be_right",4779,19,"D",2,"immigrants","R",0.5,"block2",0.8,0.82,0.8,0.78,0.15,25032,31,0.08,"block3",0.47,41660,38,NA,16,"default","how we interpret people's views","No",63,"Yes",NA,3,"Female",2,"none",NA,"Rep",0.72,0,0,0,0,0,0,NA,1,"FL","['MA']","none",NA
3917,"default","immigrants support the economy","F","block1","F-D-Anna.png","critical","list2","list2_2","list2_R","Ben didn't pretend that","Anna","liberal",0.81,"pretend",8947,4,"D",2,"immigrants","R",0.38,"block2",0.97,0.89,0.77,0.83,0,28702,24,0.93,"block3",0.74,50092,39,NA,1,"default","Impressions of other people and the comments they make","No",51,"Yes","Interesting study",3,"Male",4,"none",NA,"Dem",0.4,0,0,0,0,0,0,NA,1,"PA","['NJ']",NA,NA
3917,"default","medicaid is underfunded","F","block1","F-R-Amy.png","critical","list2","list2_2","list2_R","Allison didn't acknowledge","Amy","liberal",0.79,"acknowledge",6589,5,"R",2,"medicaid","R",0.74,"block2",0.01,0.44,0.85,0.67,1,57854,23,0.35,"block3",0.22,20718,54,NA,2,"default","Impressions of other people and the comments they make","No",51,"Yes","Interesting study",3,"Male",4,"none",NA,"Dem",0.4,0,0,0,0,0,0,NA,1,"PA","['NJ']",NA,NA
3917,"default","closing businesses during COVID was unnecessary","F","block1","F-D-Rachel.png","MC","list2","list2_2","list2_R",NA,"Rachel","conservative",0.12,NA,6855,6,"D",2,"lockdown","R",0.2,"block2",0.99,0.84,0.89,0.75,0.03,26236,26,0.86,"block3",0.61,58127,50,NA,3,"default","Impressions of other people and the comments they make","No",51,"Yes","Interesting study",3,"Male",4,"none",NA,"Dem",0.4,0,0,0,0,0,0,NA,1,"PA","['NJ']",NA,NA
3917,"default","the uprising at the Capitol was patriotic","F","block1","F-D-Helen.png","critical","list2","list2_2","list2_R","Glenn isn't right that","Helen","conservative",0,"be_right",4951,7,"D",2,"capitol_uprising","R",0.14,"block2",0.98,0.96,0.94,0.89,0.01,25022,31,0.01,"block3",0.09,69941,53,NA,4,"default","Impressions of other people and the comments they make","No",51,"Yes","Interesting study",3,"Male",4,"none",NA,"Dem",0.4,0,0,0,0,0,0,NA,1,"PA","['NJ']",NA,NA
3917,"default","the capital of the US is in Ohio",NA,"block1","NA.png","O","list2","list2_2","list2_R",NA,NA,NA,0.01,NA,6015,8,NA,2,"capital","R",NA,NA,NA,NA,NA,NA,NA,NA,NA,NA,NA,NA,NA,NA,NA,5,"default","Impressions of other people and the comments they make","No",51,"Yes","Interesting study",3,"Male",4,"none",NA,"Dem",0.4,0,0,0,0,0,0,NA,1,"PA","['NJ']",NA,NA
3917,"default","mask mandates are unnecessary","F","block1","F-R-Sarah.png","critical","list2","list2_2","list2_R","Wendy didn't acknowledge","Sarah","conservative",0.11,"acknowledge",6743,9,"R",2,"masks","R",0.83,"block2",0.01,0.25,0.83,0.27,0.97,25855,34,0.92,"block3",0.92,11447,57,NA,6,"default","Impressions of other people and the comments they make","No",51,"Yes","Interesting study",3,"Male",4,"none",NA,"Dem",0.4,0,0,0,0,0,0,NA,1,"PA","['NJ']",NA,NA
3917,"default","it is too easy to buy guns","M","block1","M-D-John.png","critical","list2","list2_2","list2_R","Owen isn't right that","John","liberal",0.98,"be_right",6287,10,"D",2,"gun_laws","R",0.36,"block2",0.99,0.8,0.08,0.77,0.03,26350,33,0.58,"block3",0.55,42101,47,NA,7,"default","Impressions of other people and the comments they make","No",51,"Yes","Interesting study",3,"Male",4,"none",NA,"Dem",0.4,0,0,0,0,0,0,NA,1,"PA","['NJ']",NA,NA
3917,"default","Trump's policies improved the American economy","M","block1","M-D-James.png","critical","list2","list2_2","list2_R","Tony isn't annoyed that","James","conservative",0.38,"be_annoyed",9151,11,"D",2,"Trump_economy","R",0.22,"block2",0.97,0.8,0.04,0.83,0.01,30046,35,0.03,"block3",0.34,18590,41,NA,8,"default","Impressions of other people and the comments they make","No",51,"Yes","Interesting study",3,"Male",4,"none",NA,"Dem",0.4,0,0,0,0,0,0,NA,1,"PA","['NJ']",NA,NA
3917,"default","the rich are taxed too much","F","block1","F-R-Lily.png","MC","list2","list2_2","list2_R",NA,"Lily","conservative",0.04,NA,4526,12,"R",2,"taxes","R",0.69,"block2",0.02,0.39,0.69,0.49,0.99,35925,29,0.26,"block3",0.97,11814,42,NA,9,"default","Impressions of other people and the comments they make","No",51,"Yes","Interesting study",3,"Male",4,"none",NA,"Dem",0.4,0,0,0,0,0,0,NA,1,"PA","['NJ']",NA,NA
