"workerid","proliferate.condition.x","SpeakerGender","list","list_firstSocCond","name","response","rt","slide_number_in_experiment","socialCondition","socialInfo","socialInfo_code","trigger_class","whichSocConditionFirst","error.x","proliferate.condition.y","about","accent","age","american","comments","education","gender","income","language","otherParty","party","politics","race_asian","race_black","race_hawaiian","race_latino","race_native","race_otherRaceCheck","race_otherRaceText","race_white","state","whichAccent","error.y","trial"
3642,"default","M","list2","list2-D","Paul",0.43,25901,4,"R","southern","S","C","D",NA,"default","To see how people are perceived or to see how judgmental people are??","No",48,"Yes",NA,1,"Male",0,"French (Maine)",NA,"Rep",0.52,0,0,0,0,0,0,NA,1,"CT",NA,NA,1
3642,"default","M","list2","list2-D","Eric",0.77,7326,5,"D","non-southern","N","Empty","D",NA,"default","To see how people are perceived or to see how judgmental people are??","No",48,"Yes",NA,1,"Male",0,"French (Maine)",NA,"Rep",0.52,0,0,0,0,0,0,NA,1,"CT",NA,NA,2
3642,"default","F","list2","list2-D","Helen",0.99,7047,6,"D","non-southern","N","C","D",NA,"default","To see how people are perceived or to see how judgmental people are??","No",48,"Yes",NA,1,"Male",0,"French (Maine)",NA,"Rep",0.52,0,0,0,0,0,0,NA,1,"CT",NA,NA,3
3642,"default","M","list2","list2-D","Kenneth",0.43,8623,7,"R","non-southern","N","C","D",NA,"default","To see how people are perceived or to see how judgmental people are??","No",48,"Yes",NA,1,"Male",0,"French (Maine)",NA,"Rep",0.52,0,0,0,0,0,0,NA,1,"CT",NA,NA,4
3642,"default","F","list2","list2-D","Amanda",0.01,18791,8,"R","Democrat","D","Party","D",NA,"default","To see how people are perceived or to see how judgmental people are??","No",48,"Yes",NA,1,"Male",0,"French (Maine)",NA,"Rep",0.52,0,0,0,0,0,0,NA,1,"CT",NA,NA,5
3642,"default","F","list2","list2-D","Jennifer",0.74,10543,9,"D","non-southern","N","C","D",NA,"default","To see how people are perceived or to see how judgmental people are??","No",48,"Yes",NA,1,"Male",0,"French (Maine)",NA,"Rep",0.52,0,0,0,0,0,0,NA,1,"CT",NA,NA,6
3642,"default","M","list2","list2-D","Jeff",0.71,10246,10,"D","southern","S","Empty","D",NA,"default","To see how people are perceived or to see how judgmental people are??","No",48,"Yes",NA,1,"Male",0,"French (Maine)",NA,"Rep",0.52,0,0,0,0,0,0,NA,1,"CT",NA,NA,7
3642,"default","F","list2","list2-D","Rebecca",0.02,7447,11,"R","non-southern","N","Empty","D",NA,"default","To see how people are perceived or to see how judgmental people are??","No",48,"Yes",NA,1,"Male",0,"French (Maine)",NA,"Rep",0.52,0,0,0,0,0,0,NA,1,"CT",NA,NA,8
3642,"default","M","list2","list2-D","Justin",1,8047,12,"D","Democrat","D","Party","D",NA,"default","To see how people are perceived or to see how judgmental people are??","No",48,"Yes",NA,1,"Male",0,"French (Maine)",NA,"Rep",0.52,0,0,0,0,0,0,NA,1,"CT",NA,NA,9
3642,"default","F","list2","list2-D","Ashley",0.72,15967,13,"R","southern","S","C","D",NA,"default","To see how people are perceived or to see how judgmental people are??","No",48,"Yes",NA,1,"Male",0,"French (Maine)",NA,"Rep",0.52,0,0,0,0,0,0,NA,1,"CT",NA,NA,10
3642,"default","M","list2","list2-D","Christopher",0.4,6934,14,"R","southern","S","C","D",NA,"default","To see how people are perceived or to see how judgmental people are??","No",48,"Yes",NA,1,"Male",0,"French (Maine)",NA,"Rep",0.52,0,0,0,0,0,0,NA,1,"CT",NA,NA,11
3642,"default","M","list2","list2-D","Daniel",0.02,6431,15,"R","non-southern","N","C","D",NA,"default","To see how people are perceived or to see how judgmental people are??","No",48,"Yes",NA,1,"Male",0,"French (Maine)",NA,"Rep",0.52,0,0,0,0,0,0,NA,1,"CT",NA,NA,12
3642,"default","M","list2","list2-D","Anthony",0.35,10494,16,"D","southern","S","C","D",NA,"default","To see how people are perceived or to see how judgmental people are??","No",48,"Yes",NA,1,"Male",0,"French (Maine)",NA,"Rep",0.52,0,0,0,0,0,0,NA,1,"CT",NA,NA,13
3642,"default","M","list2","list2-D","Jason",0.75,12311,17,"D","southern","S","C","D",NA,"default","To see how people are perceived or to see how judgmental people are??","No",48,"Yes",NA,1,"Male",0,"French (Maine)",NA,"Rep",0.52,0,0,0,0,0,0,NA,1,"CT",NA,NA,14
3642,"default","F","list2","list2-D","Angela",0.03,6623,18,"R","southern","S","Empty","D",NA,"default","To see how people are perceived or to see how judgmental people are??","No",48,"Yes",NA,1,"Male",0,"French (Maine)",NA,"Rep",0.52,0,0,0,0,0,0,NA,1,"CT",NA,NA,15
3642,"default","F","list2","list2-D","Michelle",0.01,8215,19,"R","non-southern","N","C","D",NA,"default","To see how people are perceived or to see how judgmental people are??","No",48,"Yes",NA,1,"Male",0,"French (Maine)",NA,"Rep",0.52,0,0,0,0,0,0,NA,1,"CT",NA,NA,16
3642,"default","M","list2","list2-D","John",0.99,6462,20,"D","non-southern","N","C","D",NA,"default","To see how people are perceived or to see how judgmental people are??","No",48,"Yes",NA,1,"Male",0,"French (Maine)",NA,"Rep",0.52,0,0,0,0,0,0,NA,1,"CT",NA,NA,17
3642,"default","F","list2","list2-D","Stephanie",0.99,5863,21,"R","Republican","R","Party","D",NA,"default","To see how people are perceived or to see how judgmental people are??","No",48,"Yes",NA,1,"Male",0,"French (Maine)",NA,"Rep",0.52,0,0,0,0,0,0,NA,1,"CT",NA,NA,18
3642,"default","F","list2","list2-D","Emma",0.23,6855,22,"R","southern","S","C","D",NA,"default","To see how people are perceived or to see how judgmental people are??","No",48,"Yes",NA,1,"Male",0,"French (Maine)",NA,"Rep",0.52,0,0,0,0,0,0,NA,1,"CT",NA,NA,19
3642,"default","F","list2","list2-D","Anna",0.3,5311,23,"R","non-southern","N","C","D",NA,"default","To see how people are perceived or to see how judgmental people are??","No",48,"Yes",NA,1,"Male",0,"French (Maine)",NA,"Rep",0.52,0,0,0,0,0,0,NA,1,"CT",NA,NA,20
3642,"default","F","list2","list2-D","Kimberly",0.44,11871,24,"D","southern","S","C","D",NA,"default","To see how people are perceived or to see how judgmental people are??","No",48,"Yes",NA,1,"Male",0,"French (Maine)",NA,"Rep",0.52,0,0,0,0,0,0,NA,1,"CT",NA,NA,21
3642,"default","M","list2","list2-D","Patrick",0.02,5783,25,"D","Republican","R","Party","D",NA,"default","To see how people are perceived or to see how judgmental people are??","No",48,"Yes",NA,1,"Male",0,"French (Maine)",NA,"Rep",0.52,0,0,0,0,0,0,NA,1,"CT",NA,NA,22
3642,"default","M","list2","list2-D","James",0.99,12663,26,"D","non-southern","N","C","D",NA,"default","To see how people are perceived or to see how judgmental people are??","No",48,"Yes",NA,1,"Male",0,"French (Maine)",NA,"Rep",0.52,0,0,0,0,0,0,NA,1,"CT",NA,NA,23
3642,"default","F","list2","list2-D","Amy",0.69,7215,27,"D","southern","S","C","D",NA,"default","To see how people are perceived or to see how judgmental people are??","No",48,"Yes",NA,1,"Male",0,"French (Maine)",NA,"Rep",0.52,0,0,0,0,0,0,NA,1,"CT",NA,NA,24
3643,"default","M","list2","list2-D","Christopher",0.51,12015,4,"R","southern","S","C","D",NA,"default",NA,"No",22,"Yes",NA,2,"Other",0,NA,NA,"Dem",0.02,0,0,0,0,0,0,NA,1,"VT",NA,NA,1
3643,"default","M","list2","list2-D","John",0.51,3586,5,"D","non-southern","N","C","D",NA,"default",NA,"No",22,"Yes",NA,2,"Other",0,NA,NA,"Dem",0.02,0,0,0,0,0,0,NA,1,"VT",NA,NA,2
3643,"default","F","list2","list2-D","Angela",0.49,4443,6,"R","southern","S","Empty","D",NA,"default",NA,"No",22,"Yes",NA,2,"Other",0,NA,NA,"Dem",0.02,0,0,0,0,0,0,NA,1,"VT",NA,NA,3
3643,"default","M","list2","list2-D","Patrick",0.02,5636,7,"D","Republican","R","Party","D",NA,"default",NA,"No",22,"Yes",NA,2,"Other",0,NA,NA,"Dem",0.02,0,0,0,0,0,0,NA,1,"VT",NA,NA,4
3643,"default","M","list2","list2-D","Eric",0.51,4942,8,"D","non-southern","N","Empty","D",NA,"default",NA,"No",22,"Yes",NA,2,"Other",0,NA,NA,"Dem",0.02,0,0,0,0,0,0,NA,1,"VT",NA,NA,5
3643,"default","M","list2","list2-D","Anthony",0.5,3536,9,"D","southern","S","C","D",NA,"default",NA,"No",22,"Yes",NA,2,"Other",0,NA,NA,"Dem",0.02,0,0,0,0,0,0,NA,1,"VT",NA,NA,6
3643,"default","F","list2","list2-D","Anna",0.5,3148,10,"R","non-southern","N","C","D",NA,"default",NA,"No",22,"Yes",NA,2,"Other",0,NA,NA,"Dem",0.02,0,0,0,0,0,0,NA,1,"VT",NA,NA,7
3643,"default","M","list2","list2-D","Justin",0.98,2996,11,"D","Democrat","D","Party","D",NA,"default",NA,"No",22,"Yes",NA,2,"Other",0,NA,NA,"Dem",0.02,0,0,0,0,0,0,NA,1,"VT",NA,NA,8
3643,"default","M","list2","list2-D","Jeff",0.51,2931,12,"D","southern","S","Empty","D",NA,"default",NA,"No",22,"Yes",NA,2,"Other",0,NA,NA,"Dem",0.02,0,0,0,0,0,0,NA,1,"VT",NA,NA,9
3643,"default","M","list2","list2-D","Paul",0.51,2982,13,"R","southern","S","C","D",NA,"default",NA,"No",22,"Yes",NA,2,"Other",0,NA,NA,"Dem",0.02,0,0,0,0,0,0,NA,1,"VT",NA,NA,10
3643,"default","F","list2","list2-D","Emma",0.5,2686,14,"R","southern","S","C","D",NA,"default",NA,"No",22,"Yes",NA,2,"Other",0,NA,NA,"Dem",0.02,0,0,0,0,0,0,NA,1,"VT",NA,NA,11
3643,"default","F","list2","list2-D","Kimberly",0.51,3081,15,"D","southern","S","C","D",NA,"default",NA,"No",22,"Yes",NA,2,"Other",0,NA,NA,"Dem",0.02,0,0,0,0,0,0,NA,1,"VT",NA,NA,12
3643,"default","M","list2","list2-D","Kenneth",0.5,3138,16,"R","non-southern","N","C","D",NA,"default",NA,"No",22,"Yes",NA,2,"Other",0,NA,NA,"Dem",0.02,0,0,0,0,0,0,NA,1,"VT",NA,NA,13
3643,"default","M","list2","list2-D","Daniel",0.48,2054,17,"R","non-southern","N","C","D",NA,"default",NA,"No",22,"Yes",NA,2,"Other",0,NA,NA,"Dem",0.02,0,0,0,0,0,0,NA,1,"VT",NA,NA,14
3643,"default","F","list2","list2-D","Jennifer",0.5,2824,18,"D","non-southern","N","C","D",NA,"default",NA,"No",22,"Yes",NA,2,"Other",0,NA,NA,"Dem",0.02,0,0,0,0,0,0,NA,1,"VT",NA,NA,15
3643,"default","F","list2","list2-D","Stephanie",0.99,3238,19,"R","Republican","R","Party","D",NA,"default",NA,"No",22,"Yes",NA,2,"Other",0,NA,NA,"Dem",0.02,0,0,0,0,0,0,NA,1,"VT",NA,NA,16
3643,"default","F","list2","list2-D","Rebecca",0.51,2665,20,"R","non-southern","N","Empty","D",NA,"default",NA,"No",22,"Yes",NA,2,"Other",0,NA,NA,"Dem",0.02,0,0,0,0,0,0,NA,1,"VT",NA,NA,17
3643,"default","F","list2","list2-D","Amy",0.49,2015,21,"D","southern","S","C","D",NA,"default",NA,"No",22,"Yes",NA,2,"Other",0,NA,NA,"Dem",0.02,0,0,0,0,0,0,NA,1,"VT",NA,NA,18
3643,"default","F","list2","list2-D","Amanda",0.01,3518,22,"R","Democrat","D","Party","D",NA,"default",NA,"No",22,"Yes",NA,2,"Other",0,NA,NA,"Dem",0.02,0,0,0,0,0,0,NA,1,"VT",NA,NA,19
3643,"default","M","list2","list2-D","Jason",0.5,2932,23,"D","southern","S","C","D",NA,"default",NA,"No",22,"Yes",NA,2,"Other",0,NA,NA,"Dem",0.02,0,0,0,0,0,0,NA,1,"VT",NA,NA,20
3643,"default","M","list2","list2-D","James",0.5,2081,24,"D","non-southern","N","C","D",NA,"default",NA,"No",22,"Yes",NA,2,"Other",0,NA,NA,"Dem",0.02,0,0,0,0,0,0,NA,1,"VT",NA,NA,21
3643,"default","F","list2","list2-D","Ashley",0.5,2587,25,"R","southern","S","C","D",NA,"default",NA,"No",22,"Yes",NA,2,"Other",0,NA,NA,"Dem",0.02,0,0,0,0,0,0,NA,1,"VT",NA,NA,22
3643,"default","F","list2","list2-D","Michelle",0.5,2709,26,"R","non-southern","N","C","D",NA,"default",NA,"No",22,"Yes",NA,2,"Other",0,NA,NA,"Dem",0.02,0,0,0,0,0,0,NA,1,"VT",NA,NA,23
3643,"default","F","list2","list2-D","Helen",0.5,2350,27,"D","non-southern","N","C","D",NA,"default",NA,"No",22,"Yes",NA,2,"Other",0,NA,NA,"Dem",0.02,0,0,0,0,0,0,NA,1,"VT",NA,NA,24
3644,"default","F","list2","list2-R","Jennifer",0.39,13716,4,"R","non-southern","N","C","R",NA,"default","political parties","No",20,"Yes",NA,2,"Female",7,"none",NA,"Rep",0.69,0,0,0,0,0,0,NA,1,"KY","none",NA,1
3644,"default","M","list2","list2-R","Eric",0.74,4613,5,"R","non-southern","N","Empty","R",NA,"default","political parties","No",20,"Yes",NA,2,"Female",7,"none",NA,"Rep",0.69,0,0,0,0,0,0,NA,1,"KY","none",NA,2
3644,"default","M","list2","list2-R","Daniel",0.98,6756,6,"D","non-southern","N","C","R",NA,"default","political parties","No",20,"Yes",NA,2,"Female",7,"none",NA,"Rep",0.69,0,0,0,0,0,0,NA,1,"KY","none",NA,3
3644,"default","M","list2","list2-R","Kenneth",0.25,6570,7,"D","non-southern","N","C","R",NA,"default","political parties","No",20,"Yes",NA,2,"Female",7,"none",NA,"Rep",0.69,0,0,0,0,0,0,NA,1,"KY","none",NA,4
3644,"default","F","list2","list2-R","Ashley",0.26,5033,8,"D","southern","S","C","R",NA,"default","political parties","No",20,"Yes",NA,2,"Female",7,"none",NA,"Rep",0.69,0,0,0,0,0,0,NA,1,"KY","none",NA,5
3644,"default","F","list2","list2-R","Emma",0.37,9594,9,"D","southern","S","C","R",NA,"default","political parties","No",20,"Yes",NA,2,"Female",7,"none",NA,"Rep",0.69,0,0,0,0,0,0,NA,1,"KY","none",NA,6
3644,"default","F","list2","list2-R","Anna",0.75,5261,10,"D","non-southern","N","C","R",NA,"default","political parties","No",20,"Yes",NA,2,"Female",7,"none",NA,"Rep",0.69,0,0,0,0,0,0,NA,1,"KY","none",NA,7
3644,"default","M","list2","list2-R","Paul",0.47,6036,11,"D","southern","S","C","R",NA,"default","political parties","No",20,"Yes",NA,2,"Female",7,"none",NA,"Rep",0.69,0,0,0,0,0,0,NA,1,"KY","none",NA,8
3644,"default","F","list2","list2-R","Stephanie",0.01,6810,12,"D","Republican","R","Party","R",NA,"default","political parties","No",20,"Yes",NA,2,"Female",7,"none",NA,"Rep",0.69,0,0,0,0,0,0,NA,1,"KY","none",NA,9
3644,"default","F","list2","list2-R","Kimberly",0.91,3921,13,"R","southern","S","C","R",NA,"default","political parties","No",20,"Yes",NA,2,"Female",7,"none",NA,"Rep",0.69,0,0,0,0,0,0,NA,1,"KY","none",NA,10
3644,"default","M","list2","list2-R","James",0.08,3120,14,"R","non-southern","N","C","R",NA,"default","political parties","No",20,"Yes",NA,2,"Female",7,"none",NA,"Rep",0.69,0,0,0,0,0,0,NA,1,"KY","none",NA,11
3644,"default","M","list2","list2-R","John",0.15,3674,15,"R","non-southern","N","C","R",NA,"default","political parties","No",20,"Yes",NA,2,"Female",7,"none",NA,"Rep",0.69,0,0,0,0,0,0,NA,1,"KY","none",NA,12
3644,"default","F","list2","list2-R","Rebecca",0.36,5656,16,"D","non-southern","N","Empty","R",NA,"default","political parties","No",20,"Yes",NA,2,"Female",7,"none",NA,"Rep",0.69,0,0,0,0,0,0,NA,1,"KY","none",NA,13
3644,"default","F","list2","list2-R","Michelle",0.53,8552,17,"D","non-southern","N","C","R",NA,"default","political parties","No",20,"Yes",NA,2,"Female",7,"none",NA,"Rep",0.69,0,0,0,0,0,0,NA,1,"KY","none",NA,14
3644,"default","M","list2","list2-R","Jeff",0.51,3976,18,"R","southern","S","Empty","R",NA,"default","political parties","No",20,"Yes",NA,2,"Female",7,"none",NA,"Rep",0.69,0,0,0,0,0,0,NA,1,"KY","none",NA,15
3644,"default","F","list2","list2-R","Amy",0.65,7974,19,"R","southern","S","C","R",NA,"default","political parties","No",20,"Yes",NA,2,"Female",7,"none",NA,"Rep",0.69,0,0,0,0,0,0,NA,1,"KY","none",NA,16
3644,"default","M","list2","list2-R","Patrick",0.98,8255,20,"R","Republican","R","Party","R",NA,"default","political parties","No",20,"Yes",NA,2,"Female",7,"none",NA,"Rep",0.69,0,0,0,0,0,0,NA,1,"KY","none",NA,17
3644,"default","F","list2","list2-R","Amanda",0.98,8414,21,"D","Democrat","D","Party","R",NA,"default","political parties","No",20,"Yes",NA,2,"Female",7,"none",NA,"Rep",0.69,0,0,0,0,0,0,NA,1,"KY","none",NA,18
3644,"default","M","list2","list2-R","Justin",0.01,4812,22,"R","Democrat","D","Party","R",NA,"default","political parties","No",20,"Yes",NA,2,"Female",7,"none",NA,"Rep",0.69,0,0,0,0,0,0,NA,1,"KY","none",NA,19
3644,"default","M","list2","list2-R","Jason",0.8,6871,23,"R","southern","S","C","R",NA,"default","political parties","No",20,"Yes",NA,2,"Female",7,"none",NA,"Rep",0.69,0,0,0,0,0,0,NA,1,"KY","none",NA,20
3644,"default","F","list2","list2-R","Angela",0.64,4255,24,"D","southern","S","Empty","R",NA,"default","political parties","No",20,"Yes",NA,2,"Female",7,"none",NA,"Rep",0.69,0,0,0,0,0,0,NA,1,"KY","none",NA,21
3644,"default","F","list2","list2-R","Helen",0.05,4814,25,"R","non-southern","N","C","R",NA,"default","political parties","No",20,"Yes",NA,2,"Female",7,"none",NA,"Rep",0.69,0,0,0,0,0,0,NA,1,"KY","none",NA,22
3644,"default","M","list2","list2-R","Anthony",0.82,4887,26,"R","southern","S","C","R",NA,"default","political parties","No",20,"Yes",NA,2,"Female",7,"none",NA,"Rep",0.69,0,0,0,0,0,0,NA,1,"KY","none",NA,23
3644,"default","M","list2","list2-R","Christopher",0.37,2988,27,"D","southern","S","C","R",NA,"default","political parties","No",20,"Yes",NA,2,"Female",7,"none",NA,"Rep",0.69,0,0,0,0,0,0,NA,1,"KY","none",NA,24
3646,"default","F","list2","list2-R","Stephanie",0,29785,4,"D","Republican","R","Party","R",NA,"default","assumptions of people, based on age where they are from and looks","No",19,"Yes",NA,2,"Female",0,NA,NA,"Dem",0.13,0,0,0,0,0,0,NA,1,"MT",NA,NA,1
3646,"default","F","list2","list2-R","Anna",0.62,24650,5,"D","non-southern","N","C","R",NA,"default","assumptions of people, based on age where they are from and looks","No",19,"Yes",NA,2,"Female",0,NA,NA,"Dem",0.13,0,0,0,0,0,0,NA,1,"MT",NA,NA,2
3646,"default","F","list2","list2-R","Amy",0.37,10843,6,"R","southern","S","C","R",NA,"default","assumptions of people, based on age where they are from and looks","No",19,"Yes",NA,2,"Female",0,NA,NA,"Dem",0.13,0,0,0,0,0,0,NA,1,"MT",NA,NA,3
3646,"default","F","list2","list2-R","Angela",0.2,8989,7,"D","southern","S","Empty","R",NA,"default","assumptions of people, based on age where they are from and looks","No",19,"Yes",NA,2,"Female",0,NA,NA,"Dem",0.13,0,0,0,0,0,0,NA,1,"MT",NA,NA,4
3646,"default","M","list2","list2-R","Paul",0.54,13591,8,"D","southern","S","C","R",NA,"default","assumptions of people, based on age where they are from and looks","No",19,"Yes",NA,2,"Female",0,NA,NA,"Dem",0.13,0,0,0,0,0,0,NA,1,"MT",NA,NA,5
3646,"default","M","list2","list2-R","Jeff",0.22,10442,9,"R","southern","S","Empty","R",NA,"default","assumptions of people, based on age where they are from and looks","No",19,"Yes",NA,2,"Female",0,NA,NA,"Dem",0.13,0,0,0,0,0,0,NA,1,"MT",NA,NA,6
3646,"default","F","list2","list2-R","Amanda",1,5621,10,"D","Democrat","D","Party","R",NA,"default","assumptions of people, based on age where they are from and looks","No",19,"Yes",NA,2,"Female",0,NA,NA,"Dem",0.13,0,0,0,0,0,0,NA,1,"MT",NA,NA,7
3646,"default","F","list2","list2-R","Kimberly",0.33,9425,11,"R","southern","S","C","R",NA,"default","assumptions of people, based on age where they are from and looks","No",19,"Yes",NA,2,"Female",0,NA,NA,"Dem",0.13,0,0,0,0,0,0,NA,1,"MT",NA,NA,8
3646,"default","M","list2","list2-R","Justin",0.01,8606,12,"R","Democrat","D","Party","R",NA,"default","assumptions of people, based on age where they are from and looks","No",19,"Yes",NA,2,"Female",0,NA,NA,"Dem",0.13,0,0,0,0,0,0,NA,1,"MT",NA,NA,9
3646,"default","M","list2","list2-R","John",0.12,39899,13,"R","non-southern","N","C","R",NA,"default","assumptions of people, based on age where they are from and looks","No",19,"Yes",NA,2,"Female",0,NA,NA,"Dem",0.13,0,0,0,0,0,0,NA,1,"MT",NA,NA,10
3646,"default","F","list2","list2-R","Rebecca",0.66,6635,14,"D","non-southern","N","Empty","R",NA,"default","assumptions of people, based on age where they are from and looks","No",19,"Yes",NA,2,"Female",0,NA,NA,"Dem",0.13,0,0,0,0,0,0,NA,1,"MT",NA,NA,11
3646,"default","F","list2","list2-R","Emma",0.59,10769,15,"D","southern","S","C","R",NA,"default","assumptions of people, based on age where they are from and looks","No",19,"Yes",NA,2,"Female",0,NA,NA,"Dem",0.13,0,0,0,0,0,0,NA,1,"MT",NA,NA,12
3646,"default","M","list2","list2-R","Patrick",0.99,7918,16,"R","Republican","R","Party","R",NA,"default","assumptions of people, based on age where they are from and looks","No",19,"Yes",NA,2,"Female",0,NA,NA,"Dem",0.13,0,0,0,0,0,0,NA,1,"MT",NA,NA,13
3646,"default","M","list2","list2-R","Kenneth",0.25,11937,17,"D","non-southern","N","C","R",NA,"default","assumptions of people, based on age where they are from and looks","No",19,"Yes",NA,2,"Female",0,NA,NA,"Dem",0.13,0,0,0,0,0,0,NA,1,"MT",NA,NA,14
3646,"default","F","list2","list2-R","Michelle",0.66,13814,18,"D","non-southern","N","C","R",NA,"default","assumptions of people, based on age where they are from and looks","No",19,"Yes",NA,2,"Female",0,NA,NA,"Dem",0.13,0,0,0,0,0,0,NA,1,"MT",NA,NA,15
3646,"default","M","list2","list2-R","Daniel",0.73,11645,19,"D","non-southern","N","C","R",NA,"default","assumptions of people, based on age where they are from and looks","No",19,"Yes",NA,2,"Female",0,NA,NA,"Dem",0.13,0,0,0,0,0,0,NA,1,"MT",NA,NA,16
3646,"default","M","list2","list2-R","Eric",0.81,8761,20,"R","non-southern","N","Empty","R",NA,"default","assumptions of people, based on age where they are from and looks","No",19,"Yes",NA,2,"Female",0,NA,NA,"Dem",0.13,0,0,0,0,0,0,NA,1,"MT",NA,NA,17
3646,"default","F","list2","list2-R","Ashley",0.16,10787,21,"D","southern","S","C","R",NA,"default","assumptions of people, based on age where they are from and looks","No",19,"Yes",NA,2,"Female",0,NA,NA,"Dem",0.13,0,0,0,0,0,0,NA,1,"MT",NA,NA,18
3646,"default","M","list2","list2-R","Christopher",0.74,12850,22,"D","southern","S","C","R",NA,"default","assumptions of people, based on age where they are from and looks","No",19,"Yes",NA,2,"Female",0,NA,NA,"Dem",0.13,0,0,0,0,0,0,NA,1,"MT",NA,NA,19
3646,"default","M","list2","list2-R","Jason",0.7,13334,23,"R","southern","S","C","R",NA,"default","assumptions of people, based on age where they are from and looks","No",19,"Yes",NA,2,"Female",0,NA,NA,"Dem",0.13,0,0,0,0,0,0,NA,1,"MT",NA,NA,20
3646,"default","F","list2","list2-R","Jennifer",0.65,59394,24,"R","non-southern","N","C","R",NA,"default","assumptions of people, based on age where they are from and looks","No",19,"Yes",NA,2,"Female",0,NA,NA,"Dem",0.13,0,0,0,0,0,0,NA,1,"MT",NA,NA,21
3646,"default","M","list2","list2-R","Anthony",0.89,15833,25,"R","southern","S","C","R",NA,"default","assumptions of people, based on age where they are from and looks","No",19,"Yes",NA,2,"Female",0,NA,NA,"Dem",0.13,0,0,0,0,0,0,NA,1,"MT",NA,NA,22
3646,"default","F","list2","list2-R","Helen",0.07,7987,26,"R","non-southern","N","C","R",NA,"default","assumptions of people, based on age where they are from and looks","No",19,"Yes",NA,2,"Female",0,NA,NA,"Dem",0.13,0,0,0,0,0,0,NA,1,"MT",NA,NA,23
3646,"default","M","list2","list2-R","James",0.17,8568,27,"R","non-southern","N","C","R",NA,"default","assumptions of people, based on age where they are from and looks","No",19,"Yes",NA,2,"Female",0,NA,NA,"Dem",0.13,0,0,0,0,0,0,NA,1,"MT",NA,NA,24
3647,"default","M","list1","list1-R","Eric",0.62,17276,4,"R","non-southern","N","Empty","R",NA,"default","Prejudices with judging people based on where they are from and their appearance.","No",21,"Yes","None",2,"Female",0,"None",NA,"Dem",0.03,0,0,0,0,0,0,NA,1,"WA","None",NA,1
3647,"default","M","list1","list1-R","Scott",0.67,6832,5,"D","non-southern","N","C","R",NA,"default","Prejudices with judging people based on where they are from and their appearance.","No",21,"Yes","None",2,"Female",0,"None",NA,"Dem",0.03,0,0,0,0,0,0,NA,1,"WA","None",NA,2
3647,"default","F","list1","list1-R","Lisa",0.89,9832,6,"D","non-southern","N","C","R",NA,"default","Prejudices with judging people based on where they are from and their appearance.","No",21,"Yes","None",2,"Female",0,"None",NA,"Dem",0.03,0,0,0,0,0,0,NA,1,"WA","None",NA,3
3647,"default","F","list1","list1-R","Rachel",0.91,5680,7,"R","southern","S","C","R",NA,"default","Prejudices with judging people based on where they are from and their appearance.","No",21,"Yes","None",2,"Female",0,"None",NA,"Dem",0.03,0,0,0,0,0,0,NA,1,"WA","None",NA,4
3647,"default","M","list1","list1-R","Andrew",1,5040,8,"R","southern","S","C","R",NA,"default","Prejudices with judging people based on where they are from and their appearance.","No",21,"Yes","None",2,"Female",0,"None",NA,"Dem",0.03,0,0,0,0,0,0,NA,1,"WA","None",NA,5
3647,"default","F","list1","list1-R","Rebecca",0.27,4440,9,"D","non-southern","N","Empty","R",NA,"default","Prejudices with judging people based on where they are from and their appearance.","No",21,"Yes","None",2,"Female",0,"None",NA,"Dem",0.03,0,0,0,0,0,0,NA,1,"WA","None",NA,6
3647,"default","M","list1","list1-R","Tim",0.16,4784,10,"R","non-southern","N","C","R",NA,"default","Prejudices with judging people based on where they are from and their appearance.","No",21,"Yes","None",2,"Female",0,"None",NA,"Dem",0.03,0,0,0,0,0,0,NA,1,"WA","None",NA,7
3647,"default","M","list1","list1-R","William",0.73,8064,11,"D","non-southern","N","C","R",NA,"default","Prejudices with judging people based on where they are from and their appearance.","No",21,"Yes","None",2,"Female",0,"None",NA,"Dem",0.03,0,0,0,0,0,0,NA,1,"WA","None",NA,8
3647,"default","M","list1","list1-R","Joseph",0.97,4383,12,"R","southern","S","C","R",NA,"default","Prejudices with judging people based on where they are from and their appearance.","No",21,"Yes","None",2,"Female",0,"None",NA,"Dem",0.03,0,0,0,0,0,0,NA,1,"WA","None",NA,9
3647,"default","F","list1","list1-R","Emily",0,3295,13,"R","non-southern","N","C","R",NA,"default","Prejudices with judging people based on where they are from and their appearance.","No",21,"Yes","None",2,"Female",0,"None",NA,"Dem",0.03,0,0,0,0,0,0,NA,1,"WA","None",NA,10
3647,"default","F","list1","list1-R","Stephanie",0,7296,14,"D","Republican","R","Party","R",NA,"default","Prejudices with judging people based on where they are from and their appearance.","No",21,"Yes","None",2,"Female",0,"None",NA,"Dem",0.03,0,0,0,0,0,0,NA,1,"WA","None",NA,11
3647,"default","M","list1","list1-R","Jeff",0.89,4320,15,"R","southern","S","Empty","R",NA,"default","Prejudices with judging people based on where they are from and their appearance.","No",21,"Yes","None",2,"Female",0,"None",NA,"Dem",0.03,0,0,0,0,0,0,NA,1,"WA","None",NA,12
3647,"default","F","list1","list1-R","Jessica",0.77,9223,16,"R","non-southern","N","C","R",NA,"default","Prejudices with judging people based on where they are from and their appearance.","No",21,"Yes","None",2,"Female",0,"None",NA,"Dem",0.03,0,0,0,0,0,0,NA,1,"WA","None",NA,13
3647,"default","M","list1","list1-R","Patrick",1,4095,17,"R","Republican","R","Party","R",NA,"default","Prejudices with judging people based on where they are from and their appearance.","No",21,"Yes","None",2,"Female",0,"None",NA,"Dem",0.03,0,0,0,0,0,0,NA,1,"WA","None",NA,14
3647,"default","F","list1","list1-R","Haley",0.15,3728,18,"D","southern","S","C","R",NA,"default","Prejudices with judging people based on where they are from and their appearance.","No",21,"Yes","None",2,"Female",0,"None",NA,"Dem",0.03,0,0,0,0,0,0,NA,1,"WA","None",NA,15
3647,"default","M","list1","list1-R","Ryan",0.07,3760,19,"D","southern","S","C","R",NA,"default","Prejudices with judging people based on where they are from and their appearance.","No",21,"Yes","None",2,"Female",0,"None",NA,"Dem",0.03,0,0,0,0,0,0,NA,1,"WA","None",NA,16
3647,"default","M","list1","list1-R","Justin",0,3912,20,"R","Democrat","D","Party","R",NA,"default","Prejudices with judging people based on where they are from and their appearance.","No",21,"Yes","None",2,"Female",0,"None",NA,"Dem",0.03,0,0,0,0,0,0,NA,1,"WA","None",NA,17
3647,"default","F","list1","list1-R","Sarah",0.9,5359,21,"R","southern","S","C","R",NA,"default","Prejudices with judging people based on where they are from and their appearance.","No",21,"Yes","None",2,"Female",0,"None",NA,"Dem",0.03,0,0,0,0,0,0,NA,1,"WA","None",NA,18
3647,"default","F","list1","list1-R","Elizabeth",0.88,5431,22,"D","non-southern","N","C","R",NA,"default","Prejudices with judging people based on where they are from and their appearance.","No",21,"Yes","None",2,"Female",0,"None",NA,"Dem",0.03,0,0,0,0,0,0,NA,1,"WA","None",NA,19
3647,"default","M","list1","list1-R","Michael",0.12,4631,23,"D","southern","S","C","R",NA,"default","Prejudices with judging people based on where they are from and their appearance.","No",21,"Yes","None",2,"Female",0,"None",NA,"Dem",0.03,0,0,0,0,0,0,NA,1,"WA","None",NA,20
3647,"default","F","list1","list1-R","Donna",0.09,3775,24,"D","southern","S","C","R",NA,"default","Prejudices with judging people based on where they are from and their appearance.","No",21,"Yes","None",2,"Female",0,"None",NA,"Dem",0.03,0,0,0,0,0,0,NA,1,"WA","None",NA,21
3647,"default","M","list1","list1-R","David",0.74,5614,25,"R","non-southern","N","C","R",NA,"default","Prejudices with judging people based on where they are from and their appearance.","No",21,"Yes","None",2,"Female",0,"None",NA,"Dem",0.03,0,0,0,0,0,0,NA,1,"WA","None",NA,22
3647,"default","F","list1","list1-R","Angela",0.15,4015,26,"D","southern","S","Empty","R",NA,"default","Prejudices with judging people based on where they are from and their appearance.","No",21,"Yes","None",2,"Female",0,"None",NA,"Dem",0.03,0,0,0,0,0,0,NA,1,"WA","None",NA,23
3647,"default","F","list1","list1-R","Amanda",1,7576,27,"D","Democrat","D","Party","R",NA,"default","Prejudices with judging people based on where they are from and their appearance.","No",21,"Yes","None",2,"Female",0,"None",NA,"Dem",0.03,0,0,0,0,0,0,NA,1,"WA","None",NA,24
3648,"default","F","list2","list2-D","Emma",0.73,18024,4,"R","southern","S","C","D",NA,"default","Figuring out what people look like.","No",28,"Yes","Never judge a book by its cover.",1,"Male",5,NA,NA,"Dem",0.18,0,0,0,0,0,0,NA,1,"NC",NA,NA,1
3648,"default","M","list2","list2-D","Justin",1,7726,5,"D","Democrat","D","Party","D",NA,"default","Figuring out what people look like.","No",28,"Yes","Never judge a book by its cover.",1,"Male",5,NA,NA,"Dem",0.18,0,0,0,0,0,0,NA,1,"NC",NA,NA,2
3648,"default","M","list2","list2-D","Daniel",0.19,12928,6,"R","non-southern","N","C","D",NA,"default","Figuring out what people look like.","No",28,"Yes","Never judge a book by its cover.",1,"Male",5,NA,NA,"Dem",0.18,0,0,0,0,0,0,NA,1,"NC",NA,NA,3
3648,"default","M","list2","list2-D","Eric",0.84,6982,7,"D","non-southern","N","Empty","D",NA,"default","Figuring out what people look like.","No",28,"Yes","Never judge a book by its cover.",1,"Male",5,NA,NA,"Dem",0.18,0,0,0,0,0,0,NA,1,"NC",NA,NA,4
3648,"default","F","list2","list2-D","Stephanie",1,10208,8,"R","Republican","R","Party","D",NA,"default","Figuring out what people look like.","No",28,"Yes","Never judge a book by its cover.",1,"Male",5,NA,NA,"Dem",0.18,0,0,0,0,0,0,NA,1,"NC",NA,NA,5
3648,"default","M","list2","list2-D","Anthony",0,5969,9,"D","southern","S","C","D",NA,"default","Figuring out what people look like.","No",28,"Yes","Never judge a book by its cover.",1,"Male",5,NA,NA,"Dem",0.18,0,0,0,0,0,0,NA,1,"NC",NA,NA,6
3648,"default","M","list2","list2-D","James",0.84,7946,10,"D","non-southern","N","C","D",NA,"default","Figuring out what people look like.","No",28,"Yes","Never judge a book by its cover.",1,"Male",5,NA,NA,"Dem",0.18,0,0,0,0,0,0,NA,1,"NC",NA,NA,7
3648,"default","M","list2","list2-D","Patrick",0,5310,11,"D","Republican","R","Party","D",NA,"default","Figuring out what people look like.","No",28,"Yes","Never judge a book by its cover.",1,"Male",5,NA,NA,"Dem",0.18,0,0,0,0,0,0,NA,1,"NC",NA,NA,8
3648,"default","M","list2","list2-D","John",1,8039,12,"D","non-southern","N","C","D",NA,"default","Figuring out what people look like.","No",28,"Yes","Never judge a book by its cover.",1,"Male",5,NA,NA,"Dem",0.18,0,0,0,0,0,0,NA,1,"NC",NA,NA,9
3648,"default","F","list2","list2-D","Amanda",0,4262,13,"R","Democrat","D","Party","D",NA,"default","Figuring out what people look like.","No",28,"Yes","Never judge a book by its cover.",1,"Male",5,NA,NA,"Dem",0.18,0,0,0,0,0,0,NA,1,"NC",NA,NA,10
3648,"default","F","list2","list2-D","Amy",0.13,7245,14,"D","southern","S","C","D",NA,"default","Figuring out what people look like.","No",28,"Yes","Never judge a book by its cover.",1,"Male",5,NA,NA,"Dem",0.18,0,0,0,0,0,0,NA,1,"NC",NA,NA,11
3648,"default","F","list2","list2-D","Jennifer",0.53,6000,15,"D","non-southern","N","C","D",NA,"default","Figuring out what people look like.","No",28,"Yes","Never judge a book by its cover.",1,"Male",5,NA,NA,"Dem",0.18,0,0,0,0,0,0,NA,1,"NC",NA,NA,12
3648,"default","M","list2","list2-D","Jeff",0.31,4934,16,"D","southern","S","Empty","D",NA,"default","Figuring out what people look like.","No",28,"Yes","Never judge a book by its cover.",1,"Male",5,NA,NA,"Dem",0.18,0,0,0,0,0,0,NA,1,"NC",NA,NA,13
3648,"default","F","list2","list2-D","Helen",1,4695,17,"D","non-southern","N","C","D",NA,"default","Figuring out what people look like.","No",28,"Yes","Never judge a book by its cover.",1,"Male",5,NA,NA,"Dem",0.18,0,0,0,0,0,0,NA,1,"NC",NA,NA,14
3648,"default","F","list2","list2-D","Anna",0.67,4917,18,"R","non-southern","N","C","D",NA,"default","Figuring out what people look like.","No",28,"Yes","Never judge a book by its cover.",1,"Male",5,NA,NA,"Dem",0.18,0,0,0,0,0,0,NA,1,"NC",NA,NA,15
3648,"default","F","list2","list2-D","Rebecca",0.31,4967,19,"R","non-southern","N","Empty","D",NA,"default","Figuring out what people look like.","No",28,"Yes","Never judge a book by its cover.",1,"Male",5,NA,NA,"Dem",0.18,0,0,0,0,0,0,NA,1,"NC",NA,NA,16
3648,"default","F","list2","list2-D","Kimberly",0.15,5860,20,"D","southern","S","C","D",NA,"default","Figuring out what people look like.","No",28,"Yes","Never judge a book by its cover.",1,"Male",5,NA,NA,"Dem",0.18,0,0,0,0,0,0,NA,1,"NC",NA,NA,17
3648,"default","F","list2","list2-D","Ashley",1,4090,21,"R","southern","S","C","D",NA,"default","Figuring out what people look like.","No",28,"Yes","Never judge a book by its cover.",1,"Male",5,NA,NA,"Dem",0.18,0,0,0,0,0,0,NA,1,"NC",NA,NA,18
3648,"default","F","list2","list2-D","Angela",0.62,6904,22,"R","southern","S","Empty","D",NA,"default","Figuring out what people look like.","No",28,"Yes","Never judge a book by its cover.",1,"Male",5,NA,NA,"Dem",0.18,0,0,0,0,0,0,NA,1,"NC",NA,NA,19
3648,"default","M","list2","list2-D","Kenneth",0.29,7751,23,"R","non-southern","N","C","D",NA,"default","Figuring out what people look like.","No",28,"Yes","Never judge a book by its cover.",1,"Male",5,NA,NA,"Dem",0.18,0,0,0,0,0,0,NA,1,"NC",NA,NA,20
3648,"default","M","list2","list2-D","Jason",0.28,5533,24,"D","southern","S","C","D",NA,"default","Figuring out what people look like.","No",28,"Yes","Never judge a book by its cover.",1,"Male",5,NA,NA,"Dem",0.18,0,0,0,0,0,0,NA,1,"NC",NA,NA,21
3648,"default","F","list2","list2-D","Michelle",0.27,4796,25,"R","non-southern","N","C","D",NA,"default","Figuring out what people look like.","No",28,"Yes","Never judge a book by its cover.",1,"Male",5,NA,NA,"Dem",0.18,0,0,0,0,0,0,NA,1,"NC",NA,NA,22
3648,"default","M","list2","list2-D","Paul",0.99,4170,26,"R","southern","S","C","D",NA,"default","Figuring out what people look like.","No",28,"Yes","Never judge a book by its cover.",1,"Male",5,NA,NA,"Dem",0.18,0,0,0,0,0,0,NA,1,"NC",NA,NA,23
3648,"default","M","list2","list2-D","Christopher",0.79,5159,27,"R","southern","S","C","D",NA,"default","Figuring out what people look like.","No",28,"Yes","Never judge a book by its cover.",1,"Male",5,NA,NA,"Dem",0.18,0,0,0,0,0,0,NA,1,"NC",NA,NA,24
3649,"default","M","list2","list2-R","Kenneth",0.27,16648,4,"D","non-southern","N","C","R",NA,"default","Stereotypes","Yes",21,"Yes",NA,2,"Other",7,"N/A",NA,"Dem",0.02,0,0,0,0,0,0,NA,1,"NY","I have a slight speech impediment and people always interpret it as an accent they can't place",NA,1
3649,"default","M","list2","list2-R","Anthony",0.08,4195,5,"R","southern","S","C","R",NA,"default","Stereotypes","Yes",21,"Yes",NA,2,"Other",7,"N/A",NA,"Dem",0.02,0,0,0,0,0,0,NA,1,"NY","I have a slight speech impediment and people always interpret it as an accent they can't place",NA,2
3649,"default","F","list2","list2-R","Amy",0.31,6603,6,"R","southern","S","C","R",NA,"default","Stereotypes","Yes",21,"Yes",NA,2,"Other",7,"N/A",NA,"Dem",0.02,0,0,0,0,0,0,NA,1,"NY","I have a slight speech impediment and people always interpret it as an accent they can't place",NA,3
3649,"default","M","list2","list2-R","Christopher",0.7,5940,7,"D","southern","S","C","R",NA,"default","Stereotypes","Yes",21,"Yes",NA,2,"Other",7,"N/A",NA,"Dem",0.02,0,0,0,0,0,0,NA,1,"NY","I have a slight speech impediment and people always interpret it as an accent they can't place",NA,4
3649,"default","M","list2","list2-R","Patrick",0.97,9792,8,"R","Republican","R","Party","R",NA,"default","Stereotypes","Yes",21,"Yes",NA,2,"Other",7,"N/A",NA,"Dem",0.02,0,0,0,0,0,0,NA,1,"NY","I have a slight speech impediment and people always interpret it as an accent they can't place",NA,5
3649,"default","M","list2","list2-R","Justin",0.02,4556,9,"R","Democrat","D","Party","R",NA,"default","Stereotypes","Yes",21,"Yes",NA,2,"Other",7,"N/A",NA,"Dem",0.02,0,0,0,0,0,0,NA,1,"NY","I have a slight speech impediment and people always interpret it as an accent they can't place",NA,6
3649,"default","F","list2","list2-R","Helen",0.01,10840,10,"R","non-southern","N","C","R",NA,"default","Stereotypes","Yes",21,"Yes",NA,2,"Other",7,"N/A",NA,"Dem",0.02,0,0,0,0,0,0,NA,1,"NY","I have a slight speech impediment and people always interpret it as an accent they can't place",NA,7
3649,"default","F","list2","list2-R","Kimberly",0.84,8268,11,"R","southern","S","C","R",NA,"default","Stereotypes","Yes",21,"Yes",NA,2,"Other",7,"N/A",NA,"Dem",0.02,0,0,0,0,0,0,NA,1,"NY","I have a slight speech impediment and people always interpret it as an accent they can't place",NA,8
3649,"default","F","list2","list2-R","Anna",0.71,12348,12,"D","non-southern","N","C","R",NA,"default","Stereotypes","Yes",21,"Yes",NA,2,"Other",7,"N/A",NA,"Dem",0.02,0,0,0,0,0,0,NA,1,"NY","I have a slight speech impediment and people always interpret it as an accent they can't place",NA,9
3649,"default","F","list2","list2-R","Ashley",0,5145,13,"D","southern","S","C","R",NA,"default","Stereotypes","Yes",21,"Yes",NA,2,"Other",7,"N/A",NA,"Dem",0.02,0,0,0,0,0,0,NA,1,"NY","I have a slight speech impediment and people always interpret it as an accent they can't place",NA,10
3649,"default","M","list2","list2-R","Eric",0.71,4817,14,"R","non-southern","N","Empty","R",NA,"default","Stereotypes","Yes",21,"Yes",NA,2,"Other",7,"N/A",NA,"Dem",0.02,0,0,0,0,0,0,NA,1,"NY","I have a slight speech impediment and people always interpret it as an accent they can't place",NA,11
3649,"default","F","list2","list2-R","Emma",0.8,3572,15,"D","southern","S","C","R",NA,"default","Stereotypes","Yes",21,"Yes",NA,2,"Other",7,"N/A",NA,"Dem",0.02,0,0,0,0,0,0,NA,1,"NY","I have a slight speech impediment and people always interpret it as an accent they can't place",NA,12
3649,"default","M","list2","list2-R","James",0.2,6703,16,"R","non-southern","N","C","R",NA,"default","Stereotypes","Yes",21,"Yes",NA,2,"Other",7,"N/A",NA,"Dem",0.02,0,0,0,0,0,0,NA,1,"NY","I have a slight speech impediment and people always interpret it as an accent they can't place",NA,13
3649,"default","M","list2","list2-R","John",0.28,6399,17,"R","non-southern","N","C","R",NA,"default","Stereotypes","Yes",21,"Yes",NA,2,"Other",7,"N/A",NA,"Dem",0.02,0,0,0,0,0,0,NA,1,"NY","I have a slight speech impediment and people always interpret it as an accent they can't place",NA,14
3649,"default","F","list2","list2-R","Amanda",1,3925,18,"D","Democrat","D","Party","R",NA,"default","Stereotypes","Yes",21,"Yes",NA,2,"Other",7,"N/A",NA,"Dem",0.02,0,0,0,0,0,0,NA,1,"NY","I have a slight speech impediment and people always interpret it as an accent they can't place",NA,15
3649,"default","F","list2","list2-R","Jennifer",0.23,6021,19,"R","non-southern","N","C","R",NA,"default","Stereotypes","Yes",21,"Yes",NA,2,"Other",7,"N/A",NA,"Dem",0.02,0,0,0,0,0,0,NA,1,"NY","I have a slight speech impediment and people always interpret it as an accent they can't place",NA,16
3649,"default","F","list2","list2-R","Stephanie",0.01,4203,20,"D","Republican","R","Party","R",NA,"default","Stereotypes","Yes",21,"Yes",NA,2,"Other",7,"N/A",NA,"Dem",0.02,0,0,0,0,0,0,NA,1,"NY","I have a slight speech impediment and people always interpret it as an accent they can't place",NA,17
3649,"default","M","list2","list2-R","Jeff",0.63,6457,21,"R","southern","S","Empty","R",NA,"default","Stereotypes","Yes",21,"Yes",NA,2,"Other",7,"N/A",NA,"Dem",0.02,0,0,0,0,0,0,NA,1,"NY","I have a slight speech impediment and people always interpret it as an accent they can't place",NA,18
3649,"default","M","list2","list2-R","Paul",0.69,5605,22,"D","southern","S","C","R",NA,"default","Stereotypes","Yes",21,"Yes",NA,2,"Other",7,"N/A",NA,"Dem",0.02,0,0,0,0,0,0,NA,1,"NY","I have a slight speech impediment and people always interpret it as an accent they can't place",NA,19
3649,"default","M","list2","list2-R","Jason",0.8,3966,23,"R","southern","S","C","R",NA,"default","Stereotypes","Yes",21,"Yes",NA,2,"Other",7,"N/A",NA,"Dem",0.02,0,0,0,0,0,0,NA,1,"NY","I have a slight speech impediment and people always interpret it as an accent they can't place",NA,20
3649,"default","M","list2","list2-R","Daniel",0.88,3572,24,"D","non-southern","N","C","R",NA,"default","Stereotypes","Yes",21,"Yes",NA,2,"Other",7,"N/A",NA,"Dem",0.02,0,0,0,0,0,0,NA,1,"NY","I have a slight speech impediment and people always interpret it as an accent they can't place",NA,21
3649,"default","F","list2","list2-R","Michelle",0.53,3809,25,"D","non-southern","N","C","R",NA,"default","Stereotypes","Yes",21,"Yes",NA,2,"Other",7,"N/A",NA,"Dem",0.02,0,0,0,0,0,0,NA,1,"NY","I have a slight speech impediment and people always interpret it as an accent they can't place",NA,22
3649,"default","F","list2","list2-R","Rebecca",0.63,3220,26,"D","non-southern","N","Empty","R",NA,"default","Stereotypes","Yes",21,"Yes",NA,2,"Other",7,"N/A",NA,"Dem",0.02,0,0,0,0,0,0,NA,1,"NY","I have a slight speech impediment and people always interpret it as an accent they can't place",NA,23
3649,"default","F","list2","list2-R","Angela",0.16,5473,27,"D","southern","S","Empty","R",NA,"default","Stereotypes","Yes",21,"Yes",NA,2,"Other",7,"N/A",NA,"Dem",0.02,0,0,0,0,0,0,NA,1,"NY","I have a slight speech impediment and people always interpret it as an accent they can't place",NA,24
3650,"default","F","list1","list1-D","Sarah",0.46,18693,4,"D","southern","S","C","D",NA,"default","whether people can tell from faces what a person's political leaning is","No",60,"Yes","The stimuli were badly out of synch. It would ask about the next person and then wait several seconds -- felt like 10 seconds or more -- before bringing up that person's picture and info. Sometimes their other info seemed to come in ahead of the picture. I also thought it was kind of weird that some of the items just said the person's political party -- I wasn't sure if those were trick questions.",4,"Female",2,"none",NA,"Dem",0.47,0,0,0,0,0,0,NA,1,"MA",NA,NA,1
3650,"default","M","list1","list1-D","Ryan",0.64,12856,5,"R","southern","S","C","D",NA,"default","whether people can tell from faces what a person's political leaning is","No",60,"Yes","The stimuli were badly out of synch. It would ask about the next person and then wait several seconds -- felt like 10 seconds or more -- before bringing up that person's picture and info. Sometimes their other info seemed to come in ahead of the picture. I also thought it was kind of weird that some of the items just said the person's political party -- I wasn't sure if those were trick questions.",4,"Female",2,"none",NA,"Dem",0.47,0,0,0,0,0,0,NA,1,"MA",NA,NA,2
3650,"default","M","list1","list1-D","Patrick",0.01,12768,6,"D","Republican","R","Party","D",NA,"default","whether people can tell from faces what a person's political leaning is","No",60,"Yes","The stimuli were badly out of synch. It would ask about the next person and then wait several seconds -- felt like 10 seconds or more -- before bringing up that person's picture and info. Sometimes their other info seemed to come in ahead of the picture. I also thought it was kind of weird that some of the items just said the person's political party -- I wasn't sure if those were trick questions.",4,"Female",2,"none",NA,"Dem",0.47,0,0,0,0,0,0,NA,1,"MA",NA,NA,3
3650,"default","M","list1","list1-D","Justin",0.99,6389,7,"D","Democrat","D","Party","D",NA,"default","whether people can tell from faces what a person's political leaning is","No",60,"Yes","The stimuli were badly out of synch. It would ask about the next person and then wait several seconds -- felt like 10 seconds or more -- before bringing up that person's picture and info. Sometimes their other info seemed to come in ahead of the picture. I also thought it was kind of weird that some of the items just said the person's political party -- I wasn't sure if those were trick questions.",4,"Female",2,"none",NA,"Dem",0.47,0,0,0,0,0,0,NA,1,"MA",NA,NA,4
3650,"default","F","list1","list1-D","Amanda",0,6547,8,"R","Democrat","D","Party","D",NA,"default","whether people can tell from faces what a person's political leaning is","No",60,"Yes","The stimuli were badly out of synch. It would ask about the next person and then wait several seconds -- felt like 10 seconds or more -- before bringing up that person's picture and info. Sometimes their other info seemed to come in ahead of the picture. I also thought it was kind of weird that some of the items just said the person's political party -- I wasn't sure if those were trick questions.",4,"Female",2,"none",NA,"Dem",0.47,0,0,0,0,0,0,NA,1,"MA",NA,NA,5
3650,"default","F","list1","list1-D","Donna",0.8,14039,9,"R","southern","S","C","D",NA,"default","whether people can tell from faces what a person's political leaning is","No",60,"Yes","The stimuli were badly out of synch. It would ask about the next person and then wait several seconds -- felt like 10 seconds or more -- before bringing up that person's picture and info. Sometimes their other info seemed to come in ahead of the picture. I also thought it was kind of weird that some of the items just said the person's political party -- I wasn't sure if those were trick questions.",4,"Female",2,"none",NA,"Dem",0.47,0,0,0,0,0,0,NA,1,"MA",NA,NA,6
3650,"default","F","list1","list1-D","Angela",0.24,14895,10,"R","southern","S","Empty","D",NA,"default","whether people can tell from faces what a person's political leaning is","No",60,"Yes","The stimuli were badly out of synch. It would ask about the next person and then wait several seconds -- felt like 10 seconds or more -- before bringing up that person's picture and info. Sometimes their other info seemed to come in ahead of the picture. I also thought it was kind of weird that some of the items just said the person's political party -- I wasn't sure if those were trick questions.",4,"Female",2,"none",NA,"Dem",0.47,0,0,0,0,0,0,NA,1,"MA",NA,NA,7
3650,"default","M","list1","list1-D","Eric",0.86,10214,11,"D","non-southern","N","Empty","D",NA,"default","whether people can tell from faces what a person's political leaning is","No",60,"Yes","The stimuli were badly out of synch. It would ask about the next person and then wait several seconds -- felt like 10 seconds or more -- before bringing up that person's picture and info. Sometimes their other info seemed to come in ahead of the picture. I also thought it was kind of weird that some of the items just said the person's political party -- I wasn't sure if those were trick questions.",4,"Female",2,"none",NA,"Dem",0.47,0,0,0,0,0,0,NA,1,"MA",NA,NA,8
3650,"default","M","list1","list1-D","Scott",0.66,15952,12,"R","non-southern","N","C","D",NA,"default","whether people can tell from faces what a person's political leaning is","No",60,"Yes","The stimuli were badly out of synch. It would ask about the next person and then wait several seconds -- felt like 10 seconds or more -- before bringing up that person's picture and info. Sometimes their other info seemed to come in ahead of the picture. I also thought it was kind of weird that some of the items just said the person's political party -- I wasn't sure if those were trick questions.",4,"Female",2,"none",NA,"Dem",0.47,0,0,0,0,0,0,NA,1,"MA",NA,NA,9
3650,"default","M","list1","list1-D","Michael",0.86,16604,13,"R","southern","S","C","D",NA,"default","whether people can tell from faces what a person's political leaning is","No",60,"Yes","The stimuli were badly out of synch. It would ask about the next person and then wait several seconds -- felt like 10 seconds or more -- before bringing up that person's picture and info. Sometimes their other info seemed to come in ahead of the picture. I also thought it was kind of weird that some of the items just said the person's political party -- I wasn't sure if those were trick questions.",4,"Female",2,"none",NA,"Dem",0.47,0,0,0,0,0,0,NA,1,"MA",NA,NA,10
3650,"default","F","list1","list1-D","Elizabeth",0.61,13859,14,"R","non-southern","N","C","D",NA,"default","whether people can tell from faces what a person's political leaning is","No",60,"Yes","The stimuli were badly out of synch. It would ask about the next person and then wait several seconds -- felt like 10 seconds or more -- before bringing up that person's picture and info. Sometimes their other info seemed to come in ahead of the picture. I also thought it was kind of weird that some of the items just said the person's political party -- I wasn't sure if those were trick questions.",4,"Female",2,"none",NA,"Dem",0.47,0,0,0,0,0,0,NA,1,"MA",NA,NA,11
3650,"default","M","list1","list1-D","William",0.53,21508,15,"R","non-southern","N","C","D",NA,"default","whether people can tell from faces what a person's political leaning is","No",60,"Yes","The stimuli were badly out of synch. It would ask about the next person and then wait several seconds -- felt like 10 seconds or more -- before bringing up that person's picture and info. Sometimes their other info seemed to come in ahead of the picture. I also thought it was kind of weird that some of the items just said the person's political party -- I wasn't sure if those were trick questions.",4,"Female",2,"none",NA,"Dem",0.47,0,0,0,0,0,0,NA,1,"MA",NA,NA,12
3650,"default","M","list1","list1-D","Tim",0.99,17279,16,"D","non-southern","N","C","D",NA,"default","whether people can tell from faces what a person's political leaning is","No",60,"Yes","The stimuli were badly out of synch. It would ask about the next person and then wait several seconds -- felt like 10 seconds or more -- before bringing up that person's picture and info. Sometimes their other info seemed to come in ahead of the picture. I also thought it was kind of weird that some of the items just said the person's political party -- I wasn't sure if those were trick questions.",4,"Female",2,"none",NA,"Dem",0.47,0,0,0,0,0,0,NA,1,"MA",NA,NA,13
3650,"default","F","list1","list1-D","Rebecca",0.24,17672,17,"R","non-southern","N","Empty","D",NA,"default","whether people can tell from faces what a person's political leaning is","No",60,"Yes","The stimuli were badly out of synch. It would ask about the next person and then wait several seconds -- felt like 10 seconds or more -- before bringing up that person's picture and info. Sometimes their other info seemed to come in ahead of the picture. I also thought it was kind of weird that some of the items just said the person's political party -- I wasn't sure if those were trick questions.",4,"Female",2,"none",NA,"Dem",0.47,0,0,0,0,0,0,NA,1,"MA",NA,NA,14
3650,"default","F","list1","list1-D","Emily",0.86,10777,18,"D","non-southern","N","C","D",NA,"default","whether people can tell from faces what a person's political leaning is","No",60,"Yes","The stimuli were badly out of synch. It would ask about the next person and then wait several seconds -- felt like 10 seconds or more -- before bringing up that person's picture and info. Sometimes their other info seemed to come in ahead of the picture. I also thought it was kind of weird that some of the items just said the person's political party -- I wasn't sure if those were trick questions.",4,"Female",2,"none",NA,"Dem",0.47,0,0,0,0,0,0,NA,1,"MA",NA,NA,15
3650,"default","F","list1","list1-D","Rachel",0.85,12059,19,"D","southern","S","C","D",NA,"default","whether people can tell from faces what a person's political leaning is","No",60,"Yes","The stimuli were badly out of synch. It would ask about the next person and then wait several seconds -- felt like 10 seconds or more -- before bringing up that person's picture and info. Sometimes their other info seemed to come in ahead of the picture. I also thought it was kind of weird that some of the items just said the person's political party -- I wasn't sure if those were trick questions.",4,"Female",2,"none",NA,"Dem",0.47,0,0,0,0,0,0,NA,1,"MA",NA,NA,16
3650,"default","F","list1","list1-D","Stephanie",0.98,13443,20,"R","Republican","R","Party","D",NA,"default","whether people can tell from faces what a person's political leaning is","No",60,"Yes","The stimuli were badly out of synch. It would ask about the next person and then wait several seconds -- felt like 10 seconds or more -- before bringing up that person's picture and info. Sometimes their other info seemed to come in ahead of the picture. I also thought it was kind of weird that some of the items just said the person's political party -- I wasn't sure if those were trick questions.",4,"Female",2,"none",NA,"Dem",0.47,0,0,0,0,0,0,NA,1,"MA",NA,NA,17
3650,"default","F","list1","list1-D","Jessica",0.54,33388,21,"D","non-southern","N","C","D",NA,"default","whether people can tell from faces what a person's political leaning is","No",60,"Yes","The stimuli were badly out of synch. It would ask about the next person and then wait several seconds -- felt like 10 seconds or more -- before bringing up that person's picture and info. Sometimes their other info seemed to come in ahead of the picture. I also thought it was kind of weird that some of the items just said the person's political party -- I wasn't sure if those were trick questions.",4,"Female",2,"none",NA,"Dem",0.47,0,0,0,0,0,0,NA,1,"MA",NA,NA,18
3650,"default","M","list1","list1-D","Joseph",0.37,10540,22,"D","southern","S","C","D",NA,"default","whether people can tell from faces what a person's political leaning is","No",60,"Yes","The stimuli were badly out of synch. It would ask about the next person and then wait several seconds -- felt like 10 seconds or more -- before bringing up that person's picture and info. Sometimes their other info seemed to come in ahead of the picture. I also thought it was kind of weird that some of the items just said the person's political party -- I wasn't sure if those were trick questions.",4,"Female",2,"none",NA,"Dem",0.47,0,0,0,0,0,0,NA,1,"MA",NA,NA,19
3650,"default","M","list1","list1-D","David",0.93,12801,23,"D","non-southern","N","C","D",NA,"default","whether people can tell from faces what a person's political leaning is","No",60,"Yes","The stimuli were badly out of synch. It would ask about the next person and then wait several seconds -- felt like 10 seconds or more -- before bringing up that person's picture and info. Sometimes their other info seemed to come in ahead of the picture. I also thought it was kind of weird that some of the items just said the person's political party -- I wasn't sure if those were trick questions.",4,"Female",2,"none",NA,"Dem",0.47,0,0,0,0,0,0,NA,1,"MA",NA,NA,20
3650,"default","F","list1","list1-D","Haley",0.19,16660,24,"R","southern","S","C","D",NA,"default","whether people can tell from faces what a person's political leaning is","No",60,"Yes","The stimuli were badly out of synch. It would ask about the next person and then wait several seconds -- felt like 10 seconds or more -- before bringing up that person's picture and info. Sometimes their other info seemed to come in ahead of the picture. I also thought it was kind of weird that some of the items just said the person's political party -- I wasn't sure if those were trick questions.",4,"Female",2,"none",NA,"Dem",0.47,0,0,0,0,0,0,NA,1,"MA",NA,NA,21
3650,"default","M","list1","list1-D","Jeff",0.75,24174,25,"D","southern","S","Empty","D",NA,"default","whether people can tell from faces what a person's political leaning is","No",60,"Yes","The stimuli were badly out of synch. It would ask about the next person and then wait several seconds -- felt like 10 seconds or more -- before bringing up that person's picture and info. Sometimes their other info seemed to come in ahead of the picture. I also thought it was kind of weird that some of the items just said the person's political party -- I wasn't sure if those were trick questions.",4,"Female",2,"none",NA,"Dem",0.47,0,0,0,0,0,0,NA,1,"MA",NA,NA,22
3650,"default","F","list1","list1-D","Lisa",0.87,9551,26,"R","non-southern","N","C","D",NA,"default","whether people can tell from faces what a person's political leaning is","No",60,"Yes","The stimuli were badly out of synch. It would ask about the next person and then wait several seconds -- felt like 10 seconds or more -- before bringing up that person's picture and info. Sometimes their other info seemed to come in ahead of the picture. I also thought it was kind of weird that some of the items just said the person's political party -- I wasn't sure if those were trick questions.",4,"Female",2,"none",NA,"Dem",0.47,0,0,0,0,0,0,NA,1,"MA",NA,NA,23
3650,"default","M","list1","list1-D","Andrew",0.5,18561,27,"D","southern","S","C","D",NA,"default","whether people can tell from faces what a person's political leaning is","No",60,"Yes","The stimuli were badly out of synch. It would ask about the next person and then wait several seconds -- felt like 10 seconds or more -- before bringing up that person's picture and info. Sometimes their other info seemed to come in ahead of the picture. I also thought it was kind of weird that some of the items just said the person's political party -- I wasn't sure if those were trick questions.",4,"Female",2,"none",NA,"Dem",0.47,0,0,0,0,0,0,NA,1,"MA",NA,NA,24
3651,"default","M","list2","list2-R","Daniel",0.71,12884,4,"D","non-southern","N","C","R",NA,"default","not sure","No",50,"Yes",NA,0,"Female",5,NA,NA,"Rep",0.83,0,0,0,0,0,0,NA,1,"NC",NA,NA,1
3651,"default","M","list2","list2-R","Jason",0.73,6593,5,"R","southern","S","C","R",NA,"default","not sure","No",50,"Yes",NA,0,"Female",5,NA,NA,"Rep",0.83,0,0,0,0,0,0,NA,1,"NC",NA,NA,2
3651,"default","M","list2","list2-R","Christopher",0.25,8189,6,"D","southern","S","C","R",NA,"default","not sure","No",50,"Yes",NA,0,"Female",5,NA,NA,"Rep",0.83,0,0,0,0,0,0,NA,1,"NC",NA,NA,3
3651,"default","F","list2","list2-R","Michelle",0.64,5602,7,"D","non-southern","N","C","R",NA,"default","not sure","No",50,"Yes",NA,0,"Female",5,NA,NA,"Rep",0.83,0,0,0,0,0,0,NA,1,"NC",NA,NA,4
3651,"default","M","list2","list2-R","John",0.11,7440,8,"R","non-southern","N","C","R",NA,"default","not sure","No",50,"Yes",NA,0,"Female",5,NA,NA,"Rep",0.83,0,0,0,0,0,0,NA,1,"NC",NA,NA,5
3651,"default","F","list2","list2-R","Stephanie",0.14,8407,9,"D","Republican","R","Party","R",NA,"default","not sure","No",50,"Yes",NA,0,"Female",5,NA,NA,"Rep",0.83,0,0,0,0,0,0,NA,1,"NC",NA,NA,6
3651,"default","F","list2","list2-R","Emma",0.32,16687,10,"D","southern","S","C","R",NA,"default","not sure","No",50,"Yes",NA,0,"Female",5,NA,NA,"Rep",0.83,0,0,0,0,0,0,NA,1,"NC",NA,NA,7
3651,"default","M","list2","list2-R","Kenneth",0.71,5092,11,"D","non-southern","N","C","R",NA,"default","not sure","No",50,"Yes",NA,0,"Female",5,NA,NA,"Rep",0.83,0,0,0,0,0,0,NA,1,"NC",NA,NA,8
3651,"default","F","list2","list2-R","Rebecca",0.78,5130,12,"D","non-southern","N","Empty","R",NA,"default","not sure","No",50,"Yes",NA,0,"Female",5,NA,NA,"Rep",0.83,0,0,0,0,0,0,NA,1,"NC",NA,NA,9
3651,"default","F","list2","list2-R","Anna",0.8,5354,13,"D","non-southern","N","C","R",NA,"default","not sure","No",50,"Yes",NA,0,"Female",5,NA,NA,"Rep",0.83,0,0,0,0,0,0,NA,1,"NC",NA,NA,10
3651,"default","F","list2","list2-R","Amy",0.86,5685,14,"R","southern","S","C","R",NA,"default","not sure","No",50,"Yes",NA,0,"Female",5,NA,NA,"Rep",0.83,0,0,0,0,0,0,NA,1,"NC",NA,NA,11
3651,"default","F","list2","list2-R","Angela",0.4,6375,15,"D","southern","S","Empty","R",NA,"default","not sure","No",50,"Yes",NA,0,"Female",5,NA,NA,"Rep",0.83,0,0,0,0,0,0,NA,1,"NC",NA,NA,12
3651,"default","M","list2","list2-R","Patrick",1,8123,16,"R","Republican","R","Party","R",NA,"default","not sure","No",50,"Yes",NA,0,"Female",5,NA,NA,"Rep",0.83,0,0,0,0,0,0,NA,1,"NC",NA,NA,13
3651,"default","M","list2","list2-R","Anthony",0.73,4514,17,"R","southern","S","C","R",NA,"default","not sure","No",50,"Yes",NA,0,"Female",5,NA,NA,"Rep",0.83,0,0,0,0,0,0,NA,1,"NC",NA,NA,14
3651,"default","F","list2","list2-R","Helen",0.11,4229,18,"R","non-southern","N","C","R",NA,"default","not sure","No",50,"Yes",NA,0,"Female",5,NA,NA,"Rep",0.83,0,0,0,0,0,0,NA,1,"NC",NA,NA,15
3651,"default","M","list2","list2-R","Justin",0.01,4807,19,"R","Democrat","D","Party","R",NA,"default","not sure","No",50,"Yes",NA,0,"Female",5,NA,NA,"Rep",0.83,0,0,0,0,0,0,NA,1,"NC",NA,NA,16
3651,"default","M","list2","list2-R","Eric",0.63,4177,20,"R","non-southern","N","Empty","R",NA,"default","not sure","No",50,"Yes",NA,0,"Female",5,NA,NA,"Rep",0.83,0,0,0,0,0,0,NA,1,"NC",NA,NA,17
3651,"default","F","list2","list2-R","Kimberly",0.7,5032,21,"R","southern","S","C","R",NA,"default","not sure","No",50,"Yes",NA,0,"Female",5,NA,NA,"Rep",0.83,0,0,0,0,0,0,NA,1,"NC",NA,NA,18
3651,"default","M","list2","list2-R","Jeff",0.5,5416,22,"R","southern","S","Empty","R",NA,"default","not sure","No",50,"Yes",NA,0,"Female",5,NA,NA,"Rep",0.83,0,0,0,0,0,0,NA,1,"NC",NA,NA,19
3651,"default","F","list2","list2-R","Amanda",0.99,4980,23,"D","Democrat","D","Party","R",NA,"default","not sure","No",50,"Yes",NA,0,"Female",5,NA,NA,"Rep",0.83,0,0,0,0,0,0,NA,1,"NC",NA,NA,20
3651,"default","F","list2","list2-R","Jennifer",0.66,5999,24,"R","non-southern","N","C","R",NA,"default","not sure","No",50,"Yes",NA,0,"Female",5,NA,NA,"Rep",0.83,0,0,0,0,0,0,NA,1,"NC",NA,NA,21
3651,"default","F","list2","list2-R","Ashley",0.11,6008,25,"D","southern","S","C","R",NA,"default","not sure","No",50,"Yes",NA,0,"Female",5,NA,NA,"Rep",0.83,0,0,0,0,0,0,NA,1,"NC",NA,NA,22
3651,"default","M","list2","list2-R","Paul",0.41,4950,26,"D","southern","S","C","R",NA,"default","not sure","No",50,"Yes",NA,0,"Female",5,NA,NA,"Rep",0.83,0,0,0,0,0,0,NA,1,"NC",NA,NA,23
3651,"default","M","list2","list2-R","James",0.27,4611,27,"R","non-southern","N","C","R",NA,"default","not sure","No",50,"Yes",NA,0,"Female",5,NA,NA,"Rep",0.83,0,0,0,0,0,0,NA,1,"NC",NA,NA,24
3654,"default","M","list1","list1-R","Patrick",0.98,20446,4,"R","Republican","R","Party","R",NA,"default","Making political party affilation generalizations about people based upon home location, gender, and age.","No",64,"Yes","None",4,"Male",6,"None",NA,"Rep",0.98,0,0,0,0,0,0,NA,1,"NJ",NA,NA,1
3654,"default","F","list1","list1-R","Elizabeth",0.98,38814,5,"D","non-southern","N","C","R",NA,"default","Making political party affilation generalizations about people based upon home location, gender, and age.","No",64,"Yes","None",4,"Male",6,"None",NA,"Rep",0.98,0,0,0,0,0,0,NA,1,"NJ",NA,NA,2
3654,"default","F","list1","list1-R","Stephanie",0.02,12014,6,"D","Republican","R","Party","R",NA,"default","Making political party affilation generalizations about people based upon home location, gender, and age.","No",64,"Yes","None",4,"Male",6,"None",NA,"Rep",0.98,0,0,0,0,0,0,NA,1,"NJ",NA,NA,3
3654,"default","F","list1","list1-R","Sarah",0.71,13575,7,"R","southern","S","C","R",NA,"default","Making political party affilation generalizations about people based upon home location, gender, and age.","No",64,"Yes","None",4,"Male",6,"None",NA,"Rep",0.98,0,0,0,0,0,0,NA,1,"NJ",NA,NA,4
3654,"default","M","list1","list1-R","Justin",0.02,9541,8,"R","Democrat","D","Party","R",NA,"default","Making political party affilation generalizations about people based upon home location, gender, and age.","No",64,"Yes","None",4,"Male",6,"None",NA,"Rep",0.98,0,0,0,0,0,0,NA,1,"NJ",NA,NA,5
3654,"default","M","list1","list1-R","David",0.4,16350,9,"R","non-southern","N","C","R",NA,"default","Making political party affilation generalizations about people based upon home location, gender, and age.","No",64,"Yes","None",4,"Male",6,"None",NA,"Rep",0.98,0,0,0,0,0,0,NA,1,"NJ",NA,NA,6
3654,"default","F","list1","list1-R","Rebecca",0.84,9503,10,"D","non-southern","N","Empty","R",NA,"default","Making political party affilation generalizations about people based upon home location, gender, and age.","No",64,"Yes","None",4,"Male",6,"None",NA,"Rep",0.98,0,0,0,0,0,0,NA,1,"NJ",NA,NA,7
3654,"default","M","list1","list1-R","Eric",0.36,8598,11,"R","non-southern","N","Empty","R",NA,"default","Making political party affilation generalizations about people based upon home location, gender, and age.","No",64,"Yes","None",4,"Male",6,"None",NA,"Rep",0.98,0,0,0,0,0,0,NA,1,"NJ",NA,NA,8
3654,"default","F","list1","list1-R","Amanda",0.99,8726,12,"D","Democrat","D","Party","R",NA,"default","Making political party affilation generalizations about people based upon home location, gender, and age.","No",64,"Yes","None",4,"Male",6,"None",NA,"Rep",0.98,0,0,0,0,0,0,NA,1,"NJ",NA,NA,9
3654,"default","F","list1","list1-R","Angela",0.48,6942,13,"D","southern","S","Empty","R",NA,"default","Making political party affilation generalizations about people based upon home location, gender, and age.","No",64,"Yes","None",4,"Male",6,"None",NA,"Rep",0.98,0,0,0,0,0,0,NA,1,"NJ",NA,NA,10
3654,"default","F","list1","list1-R","Donna",0.42,11414,14,"D","southern","S","C","R",NA,"default","Making political party affilation generalizations about people based upon home location, gender, and age.","No",64,"Yes","None",4,"Male",6,"None",NA,"Rep",0.98,0,0,0,0,0,0,NA,1,"NJ",NA,NA,11
3654,"default","F","list1","list1-R","Haley",0.31,8415,15,"D","southern","S","C","R",NA,"default","Making political party affilation generalizations about people based upon home location, gender, and age.","No",64,"Yes","None",4,"Male",6,"None",NA,"Rep",0.98,0,0,0,0,0,0,NA,1,"NJ",NA,NA,12
3654,"default","M","list1","list1-R","Ryan",0.26,9447,16,"D","southern","S","C","R",NA,"default","Making political party affilation generalizations about people based upon home location, gender, and age.","No",64,"Yes","None",4,"Male",6,"None",NA,"Rep",0.98,0,0,0,0,0,0,NA,1,"NJ",NA,NA,13
3654,"default","M","list1","list1-R","Joseph",0.83,6440,17,"R","southern","S","C","R",NA,"default","Making political party affilation generalizations about people based upon home location, gender, and age.","No",64,"Yes","None",4,"Male",6,"None",NA,"Rep",0.98,0,0,0,0,0,0,NA,1,"NJ",NA,NA,14
3654,"default","M","list1","list1-R","Jeff",0.59,8278,18,"R","southern","S","Empty","R",NA,"default","Making political party affilation generalizations about people based upon home location, gender, and age.","No",64,"Yes","None",4,"Male",6,"None",NA,"Rep",0.98,0,0,0,0,0,0,NA,1,"NJ",NA,NA,15
3654,"default","M","list1","list1-R","Scott",0.65,8182,19,"D","non-southern","N","C","R",NA,"default","Making political party affilation generalizations about people based upon home location, gender, and age.","No",64,"Yes","None",4,"Male",6,"None",NA,"Rep",0.98,0,0,0,0,0,0,NA,1,"NJ",NA,NA,16
3654,"default","F","list1","list1-R","Jessica",0.18,6608,20,"R","non-southern","N","C","R",NA,"default","Making political party affilation generalizations about people based upon home location, gender, and age.","No",64,"Yes","None",4,"Male",6,"None",NA,"Rep",0.98,0,0,0,0,0,0,NA,1,"NJ",NA,NA,17
3654,"default","F","list1","list1-R","Lisa",0.92,8742,21,"D","non-southern","N","C","R",NA,"default","Making political party affilation generalizations about people based upon home location, gender, and age.","No",64,"Yes","None",4,"Male",6,"None",NA,"Rep",0.98,0,0,0,0,0,0,NA,1,"NJ",NA,NA,18
3654,"default","M","list1","list1-R","Andrew",0.9,7574,22,"R","southern","S","C","R",NA,"default","Making political party affilation generalizations about people based upon home location, gender, and age.","No",64,"Yes","None",4,"Male",6,"None",NA,"Rep",0.98,0,0,0,0,0,0,NA,1,"NJ",NA,NA,19
3654,"default","F","list1","list1-R","Emily",0.07,15006,23,"R","non-southern","N","C","R",NA,"default","Making political party affilation generalizations about people based upon home location, gender, and age.","No",64,"Yes","None",4,"Male",6,"None",NA,"Rep",0.98,0,0,0,0,0,0,NA,1,"NJ",NA,NA,20
3654,"default","M","list1","list1-R","Michael",0.37,7782,24,"D","southern","S","C","R",NA,"default","Making political party affilation generalizations about people based upon home location, gender, and age.","No",64,"Yes","None",4,"Male",6,"None",NA,"Rep",0.98,0,0,0,0,0,0,NA,1,"NJ",NA,NA,21
3654,"default","M","list1","list1-R","Tim",0.16,20095,25,"R","non-southern","N","C","R",NA,"default","Making political party affilation generalizations about people based upon home location, gender, and age.","No",64,"Yes","None",4,"Male",6,"None",NA,"Rep",0.98,0,0,0,0,0,0,NA,1,"NJ",NA,NA,22
3654,"default","F","list1","list1-R","Rachel",0.67,6182,26,"R","southern","S","C","R",NA,"default","Making political party affilation generalizations about people based upon home location, gender, and age.","No",64,"Yes","None",4,"Male",6,"None",NA,"Rep",0.98,0,0,0,0,0,0,NA,1,"NJ",NA,NA,23
3654,"default","M","list1","list1-R","William",0.79,10359,27,"D","non-southern","N","C","R",NA,"default","Making political party affilation generalizations about people based upon home location, gender, and age.","No",64,"Yes","None",4,"Male",6,"None",NA,"Rep",0.98,0,0,0,0,0,0,NA,1,"NJ",NA,NA,24
3655,"default","M","list2","list2-R","James",0.2,25336,4,"R","non-southern","N","C","R",NA,"default","How we view people and their suspected political parties","Yes",26,"Yes",NA,3,"Male",3,NA,NA,"Dem",0.45,0,0,0,0,0,0,NA,1,"MI","Midwest/Michigander",NA,1
3655,"default","F","list2","list2-R","Kimberly",0.8,6496,5,"R","southern","S","C","R",NA,"default","How we view people and their suspected political parties","Yes",26,"Yes",NA,3,"Male",3,NA,NA,"Dem",0.45,0,0,0,0,0,0,NA,1,"MI","Midwest/Michigander",NA,2
3655,"default","F","list2","list2-R","Angela",0.28,4414,6,"D","southern","S","Empty","R",NA,"default","How we view people and their suspected political parties","Yes",26,"Yes",NA,3,"Male",3,NA,NA,"Dem",0.45,0,0,0,0,0,0,NA,1,"MI","Midwest/Michigander",NA,3
3655,"default","F","list2","list2-R","Jennifer",0.38,6914,7,"R","non-southern","N","C","R",NA,"default","How we view people and their suspected political parties","Yes",26,"Yes",NA,3,"Male",3,NA,NA,"Dem",0.45,0,0,0,0,0,0,NA,1,"MI","Midwest/Michigander",NA,4
3655,"default","M","list2","list2-R","Paul",0.75,5800,8,"D","southern","S","C","R",NA,"default","How we view people and their suspected political parties","Yes",26,"Yes",NA,3,"Male",3,NA,NA,"Dem",0.45,0,0,0,0,0,0,NA,1,"MI","Midwest/Michigander",NA,5
3655,"default","M","list2","list2-R","Anthony",0.41,4517,9,"R","southern","S","C","R",NA,"default","How we view people and their suspected political parties","Yes",26,"Yes",NA,3,"Male",3,NA,NA,"Dem",0.45,0,0,0,0,0,0,NA,1,"MI","Midwest/Michigander",NA,6
3655,"default","M","list2","list2-R","John",0.15,4436,10,"R","non-southern","N","C","R",NA,"default","How we view people and their suspected political parties","Yes",26,"Yes",NA,3,"Male",3,NA,NA,"Dem",0.45,0,0,0,0,0,0,NA,1,"MI","Midwest/Michigander",NA,7
3655,"default","M","list2","list2-R","Jason",0.69,5410,11,"R","southern","S","C","R",NA,"default","How we view people and their suspected political parties","Yes",26,"Yes",NA,3,"Male",3,NA,NA,"Dem",0.45,0,0,0,0,0,0,NA,1,"MI","Midwest/Michigander",NA,8
3655,"default","M","list2","list2-R","Patrick",1,6695,12,"R","Republican","R","Party","R",NA,"default","How we view people and their suspected political parties","Yes",26,"Yes",NA,3,"Male",3,NA,NA,"Dem",0.45,0,0,0,0,0,0,NA,1,"MI","Midwest/Michigander",NA,9
3655,"default","F","list2","list2-R","Amy",0.54,4664,13,"R","southern","S","C","R",NA,"default","How we view people and their suspected political parties","Yes",26,"Yes",NA,3,"Male",3,NA,NA,"Dem",0.45,0,0,0,0,0,0,NA,1,"MI","Midwest/Michigander",NA,10
3655,"default","F","list2","list2-R","Rebecca",0.72,31805,14,"D","non-southern","N","Empty","R",NA,"default","How we view people and their suspected political parties","Yes",26,"Yes",NA,3,"Male",3,NA,NA,"Dem",0.45,0,0,0,0,0,0,NA,1,"MI","Midwest/Michigander",NA,11
3655,"default","F","list2","list2-R","Michelle",0.81,4896,15,"D","non-southern","N","C","R",NA,"default","How we view people and their suspected political parties","Yes",26,"Yes",NA,3,"Male",3,NA,NA,"Dem",0.45,0,0,0,0,0,0,NA,1,"MI","Midwest/Michigander",NA,12
3655,"default","M","list2","list2-R","Justin",0,4113,16,"R","Democrat","D","Party","R",NA,"default","How we view people and their suspected political parties","Yes",26,"Yes",NA,3,"Male",3,NA,NA,"Dem",0.45,0,0,0,0,0,0,NA,1,"MI","Midwest/Michigander",NA,13
3655,"default","F","list2","list2-R","Amanda",1,4200,17,"D","Democrat","D","Party","R",NA,"default","How we view people and their suspected political parties","Yes",26,"Yes",NA,3,"Male",3,NA,NA,"Dem",0.45,0,0,0,0,0,0,NA,1,"MI","Midwest/Michigander",NA,14
3655,"default","M","list2","list2-R","Christopher",0.29,3973,18,"D","southern","S","C","R",NA,"default","How we view people and their suspected political parties","Yes",26,"Yes",NA,3,"Male",3,NA,NA,"Dem",0.45,0,0,0,0,0,0,NA,1,"MI","Midwest/Michigander",NA,15
3655,"default","F","list2","list2-R","Stephanie",0,3930,19,"D","Republican","R","Party","R",NA,"default","How we view people and their suspected political parties","Yes",26,"Yes",NA,3,"Male",3,NA,NA,"Dem",0.45,0,0,0,0,0,0,NA,1,"MI","Midwest/Michigander",NA,16
3655,"default","M","list2","list2-R","Eric",0.32,3539,20,"R","non-southern","N","Empty","R",NA,"default","How we view people and their suspected political parties","Yes",26,"Yes",NA,3,"Male",3,NA,NA,"Dem",0.45,0,0,0,0,0,0,NA,1,"MI","Midwest/Michigander",NA,17
3655,"default","F","list2","list2-R","Emma",0.32,4392,21,"D","southern","S","C","R",NA,"default","How we view people and their suspected political parties","Yes",26,"Yes",NA,3,"Male",3,NA,NA,"Dem",0.45,0,0,0,0,0,0,NA,1,"MI","Midwest/Michigander",NA,18
3655,"default","F","list2","list2-R","Helen",0.01,5499,22,"R","non-southern","N","C","R",NA,"default","How we view people and their suspected political parties","Yes",26,"Yes",NA,3,"Male",3,NA,NA,"Dem",0.45,0,0,0,0,0,0,NA,1,"MI","Midwest/Michigander",NA,19
3655,"default","M","list2","list2-R","Jeff",0.66,3451,23,"R","southern","S","Empty","R",NA,"default","How we view people and their suspected political parties","Yes",26,"Yes",NA,3,"Male",3,NA,NA,"Dem",0.45,0,0,0,0,0,0,NA,1,"MI","Midwest/Michigander",NA,20
3655,"default","F","list2","list2-R","Ashley",0.6,3247,24,"D","southern","S","C","R",NA,"default","How we view people and their suspected political parties","Yes",26,"Yes",NA,3,"Male",3,NA,NA,"Dem",0.45,0,0,0,0,0,0,NA,1,"MI","Midwest/Michigander",NA,21
3655,"default","M","list2","list2-R","Kenneth",0.37,4469,25,"D","non-southern","N","C","R",NA,"default","How we view people and their suspected political parties","Yes",26,"Yes",NA,3,"Male",3,NA,NA,"Dem",0.45,0,0,0,0,0,0,NA,1,"MI","Midwest/Michigander",NA,22
3655,"default","M","list2","list2-R","Daniel",0.8,3667,26,"D","non-southern","N","C","R",NA,"default","How we view people and their suspected political parties","Yes",26,"Yes",NA,3,"Male",3,NA,NA,"Dem",0.45,0,0,0,0,0,0,NA,1,"MI","Midwest/Michigander",NA,23
3655,"default","F","list2","list2-R","Anna",0.76,4340,27,"D","non-southern","N","C","R",NA,"default","How we view people and their suspected political parties","Yes",26,"Yes",NA,3,"Male",3,NA,NA,"Dem",0.45,0,0,0,0,0,0,NA,1,"MI","Midwest/Michigander",NA,24
3656,"default","M","list1","list1-R","Tim",0.02,15480,4,"R","non-southern","N","C","R",NA,"default","Peoples knowledge on politics","No",21,"Yes",NA,1,"Female",2,"Spanish",NA,"Lib",0.44,0,0,0,1,0,0,NA,0,"CA",NA,NA,1
3656,"default","F","list1","list1-R","Angela",0.22,16375,5,"D","southern","S","Empty","R",NA,"default","Peoples knowledge on politics","No",21,"Yes",NA,1,"Female",2,"Spanish",NA,"Lib",0.44,0,0,0,1,0,0,NA,0,"CA",NA,NA,2
3656,"default","F","list1","list1-R","Rebecca",0.01,9473,6,"D","non-southern","N","Empty","R",NA,"default","Peoples knowledge on politics","No",21,"Yes",NA,1,"Female",2,"Spanish",NA,"Lib",0.44,0,0,0,1,0,0,NA,0,"CA",NA,NA,3
3656,"default","F","list1","list1-R","Donna",0.04,15215,7,"D","southern","S","C","R",NA,"default","Peoples knowledge on politics","No",21,"Yes",NA,1,"Female",2,"Spanish",NA,"Lib",0.44,0,0,0,1,0,0,NA,0,"CA",NA,NA,4
3656,"default","M","list1","list1-R","Justin",0,11625,8,"R","Democrat","D","Party","R",NA,"default","Peoples knowledge on politics","No",21,"Yes",NA,1,"Female",2,"Spanish",NA,"Lib",0.44,0,0,0,1,0,0,NA,0,"CA",NA,NA,5
3656,"default","M","list1","list1-R","David",1,15358,9,"R","non-southern","N","C","R",NA,"default","Peoples knowledge on politics","No",21,"Yes",NA,1,"Female",2,"Spanish",NA,"Lib",0.44,0,0,0,1,0,0,NA,0,"CA",NA,NA,6
3656,"default","F","list1","list1-R","Stephanie",0,6564,10,"D","Republican","R","Party","R",NA,"default","Peoples knowledge on politics","No",21,"Yes",NA,1,"Female",2,"Spanish",NA,"Lib",0.44,0,0,0,1,0,0,NA,0,"CA",NA,NA,7
3656,"default","M","list1","list1-R","Andrew",0.98,23917,11,"R","southern","S","C","R",NA,"default","Peoples knowledge on politics","No",21,"Yes",NA,1,"Female",2,"Spanish",NA,"Lib",0.44,0,0,0,1,0,0,NA,0,"CA",NA,NA,8
3656,"default","F","list1","list1-R","Elizabeth",1,14273,12,"D","non-southern","N","C","R",NA,"default","Peoples knowledge on politics","No",21,"Yes",NA,1,"Female",2,"Spanish",NA,"Lib",0.44,0,0,0,1,0,0,NA,0,"CA",NA,NA,9
3656,"default","F","list1","list1-R","Lisa",1,11511,13,"D","non-southern","N","C","R",NA,"default","Peoples knowledge on politics","No",21,"Yes",NA,1,"Female",2,"Spanish",NA,"Lib",0.44,0,0,0,1,0,0,NA,0,"CA",NA,NA,10
3656,"default","F","list1","list1-R","Emily",0.01,8401,14,"R","non-southern","N","C","R",NA,"default","Peoples knowledge on politics","No",21,"Yes",NA,1,"Female",2,"Spanish",NA,"Lib",0.44,0,0,0,1,0,0,NA,0,"CA",NA,NA,11
3656,"default","M","list1","list1-R","Michael",0.42,14664,15,"D","southern","S","C","R",NA,"default","Peoples knowledge on politics","No",21,"Yes",NA,1,"Female",2,"Spanish",NA,"Lib",0.44,0,0,0,1,0,0,NA,0,"CA",NA,NA,12
3656,"default","M","list1","list1-R","Jeff",0.73,20028,16,"R","southern","S","Empty","R",NA,"default","Peoples knowledge on politics","No",21,"Yes",NA,1,"Female",2,"Spanish",NA,"Lib",0.44,0,0,0,1,0,0,NA,0,"CA",NA,NA,13
3656,"default","M","list1","list1-R","Patrick",0.98,4680,17,"R","Republican","R","Party","R",NA,"default","Peoples knowledge on politics","No",21,"Yes",NA,1,"Female",2,"Spanish",NA,"Lib",0.44,0,0,0,1,0,0,NA,0,"CA",NA,NA,14
3656,"default","F","list1","list1-R","Amanda",1,5640,18,"D","Democrat","D","Party","R",NA,"default","Peoples knowledge on politics","No",21,"Yes",NA,1,"Female",2,"Spanish",NA,"Lib",0.44,0,0,0,1,0,0,NA,0,"CA",NA,NA,15
3656,"default","M","list1","list1-R","Joseph",0.99,9114,19,"R","southern","S","C","R",NA,"default","Peoples knowledge on politics","No",21,"Yes",NA,1,"Female",2,"Spanish",NA,"Lib",0.44,0,0,0,1,0,0,NA,0,"CA",NA,NA,16
3656,"default","F","list1","list1-R","Jessica",0,10545,20,"R","non-southern","N","C","R",NA,"default","Peoples knowledge on politics","No",21,"Yes",NA,1,"Female",2,"Spanish",NA,"Lib",0.44,0,0,0,1,0,0,NA,0,"CA",NA,NA,17
3656,"default","F","list1","list1-R","Rachel",0.14,6343,21,"R","southern","S","C","R",NA,"default","Peoples knowledge on politics","No",21,"Yes",NA,1,"Female",2,"Spanish",NA,"Lib",0.44,0,0,0,1,0,0,NA,0,"CA",NA,NA,18
3656,"default","M","list1","list1-R","Eric",0.76,23979,22,"R","non-southern","N","Empty","R",NA,"default","Peoples knowledge on politics","No",21,"Yes",NA,1,"Female",2,"Spanish",NA,"Lib",0.44,0,0,0,1,0,0,NA,0,"CA",NA,NA,19
3656,"default","F","list1","list1-R","Sarah",0.96,5737,23,"R","southern","S","C","R",NA,"default","Peoples knowledge on politics","No",21,"Yes",NA,1,"Female",2,"Spanish",NA,"Lib",0.44,0,0,0,1,0,0,NA,0,"CA",NA,NA,20
3656,"default","M","list1","list1-R","Scott",0.04,9552,24,"D","non-southern","N","C","R",NA,"default","Peoples knowledge on politics","No",21,"Yes",NA,1,"Female",2,"Spanish",NA,"Lib",0.44,0,0,0,1,0,0,NA,0,"CA",NA,NA,21
3656,"default","M","list1","list1-R","William",1,14574,25,"D","non-southern","N","C","R",NA,"default","Peoples knowledge on politics","No",21,"Yes",NA,1,"Female",2,"Spanish",NA,"Lib",0.44,0,0,0,1,0,0,NA,0,"CA",NA,NA,22
3656,"default","F","list1","list1-R","Haley",0.5,11557,26,"D","southern","S","C","R",NA,"default","Peoples knowledge on politics","No",21,"Yes",NA,1,"Female",2,"Spanish",NA,"Lib",0.44,0,0,0,1,0,0,NA,0,"CA",NA,NA,23
3656,"default","M","list1","list1-R","Ryan",0.53,7333,27,"D","southern","S","C","R",NA,"default","Peoples knowledge on politics","No",21,"Yes",NA,1,"Female",2,"Spanish",NA,"Lib",0.44,0,0,0,1,0,0,NA,0,"CA",NA,NA,24
3658,"default","F","list2","list2-D","Stephanie",0.99,26816,4,"R","Republican","R","Party","D",NA,"default","It was interesting to be given so little information to form an initial assessment.  Made me realize I still only have a basic understanding of which states lean Republican and which states lean Democrat.  Obviously the chances of a person being one or the other increases when the state already leans that way. For example, living in Utah I know the chances of a person being Republican are very high.  As well as in some if not all of the Southern States.  I'm still learning about politics so I think that's all I can offer at this time.","No",45,"Yes","Thank You.",2,"Female",3,"None",NA,"Dem",0.35,1,0,0,0,0,0,NA,1,"UT","N/A",NA,1
3658,"default","F","list2","list2-D","Amanda",0.01,9432,5,"R","Democrat","D","Party","D",NA,"default","It was interesting to be given so little information to form an initial assessment.  Made me realize I still only have a basic understanding of which states lean Republican and which states lean Democrat.  Obviously the chances of a person being one or the other increases when the state already leans that way. For example, living in Utah I know the chances of a person being Republican are very high.  As well as in some if not all of the Southern States.  I'm still learning about politics so I think that's all I can offer at this time.","No",45,"Yes","Thank You.",2,"Female",3,"None",NA,"Dem",0.35,1,0,0,0,0,0,NA,1,"UT","N/A",NA,2
3658,"default","M","list2","list2-D","James",0.49,22717,6,"D","non-southern","N","C","D",NA,"default","It was interesting to be given so little information to form an initial assessment.  Made me realize I still only have a basic understanding of which states lean Republican and which states lean Democrat.  Obviously the chances of a person being one or the other increases when the state already leans that way. For example, living in Utah I know the chances of a person being Republican are very high.  As well as in some if not all of the Southern States.  I'm still learning about politics so I think that's all I can offer at this time.","No",45,"Yes","Thank You.",2,"Female",3,"None",NA,"Dem",0.35,1,0,0,0,0,0,NA,1,"UT","N/A",NA,3
3658,"default","M","list2","list2-D","Daniel",0.99,16523,7,"R","non-southern","N","C","D",NA,"default","It was interesting to be given so little information to form an initial assessment.  Made me realize I still only have a basic understanding of which states lean Republican and which states lean Democrat.  Obviously the chances of a person being one or the other increases when the state already leans that way. For example, living in Utah I know the chances of a person being Republican are very high.  As well as in some if not all of the Southern States.  I'm still learning about politics so I think that's all I can offer at this time.","No",45,"Yes","Thank You.",2,"Female",3,"None",NA,"Dem",0.35,1,0,0,0,0,0,NA,1,"UT","N/A",NA,4
3658,"default","M","list2","list2-D","John",0.49,20610,8,"D","non-southern","N","C","D",NA,"default","It was interesting to be given so little information to form an initial assessment.  Made me realize I still only have a basic understanding of which states lean Republican and which states lean Democrat.  Obviously the chances of a person being one or the other increases when the state already leans that way. For example, living in Utah I know the chances of a person being Republican are very high.  As well as in some if not all of the Southern States.  I'm still learning about politics so I think that's all I can offer at this time.","No",45,"Yes","Thank You.",2,"Female",3,"None",NA,"Dem",0.35,1,0,0,0,0,0,NA,1,"UT","N/A",NA,5
3658,"default","F","list2","list2-D","Rebecca",0.75,11178,9,"R","non-southern","N","Empty","D",NA,"default","It was interesting to be given so little information to form an initial assessment.  Made me realize I still only have a basic understanding of which states lean Republican and which states lean Democrat.  Obviously the chances of a person being one or the other increases when the state already leans that way. For example, living in Utah I know the chances of a person being Republican are very high.  As well as in some if not all of the Southern States.  I'm still learning about politics so I think that's all I can offer at this time.","No",45,"Yes","Thank You.",2,"Female",3,"None",NA,"Dem",0.35,1,0,0,0,0,0,NA,1,"UT","N/A",NA,6
3658,"default","F","list2","list2-D","Helen",0.96,10323,10,"D","non-southern","N","C","D",NA,"default","It was interesting to be given so little information to form an initial assessment.  Made me realize I still only have a basic understanding of which states lean Republican and which states lean Democrat.  Obviously the chances of a person being one or the other increases when the state already leans that way. For example, living in Utah I know the chances of a person being Republican are very high.  As well as in some if not all of the Southern States.  I'm still learning about politics so I think that's all I can offer at this time.","No",45,"Yes","Thank You.",2,"Female",3,"None",NA,"Dem",0.35,1,0,0,0,0,0,NA,1,"UT","N/A",NA,7
3658,"default","M","list2","list2-D","Anthony",0.27,12354,11,"D","southern","S","C","D",NA,"default","It was interesting to be given so little information to form an initial assessment.  Made me realize I still only have a basic understanding of which states lean Republican and which states lean Democrat.  Obviously the chances of a person being one or the other increases when the state already leans that way. For example, living in Utah I know the chances of a person being Republican are very high.  As well as in some if not all of the Southern States.  I'm still learning about politics so I think that's all I can offer at this time.","No",45,"Yes","Thank You.",2,"Female",3,"None",NA,"Dem",0.35,1,0,0,0,0,0,NA,1,"UT","N/A",NA,8
3658,"default","F","list2","list2-D","Angela",0.79,9106,12,"R","southern","S","Empty","D",NA,"default","It was interesting to be given so little information to form an initial assessment.  Made me realize I still only have a basic understanding of which states lean Republican and which states lean Democrat.  Obviously the chances of a person being one or the other increases when the state already leans that way. For example, living in Utah I know the chances of a person being Republican are very high.  As well as in some if not all of the Southern States.  I'm still learning about politics so I think that's all I can offer at this time.","No",45,"Yes","Thank You.",2,"Female",3,"None",NA,"Dem",0.35,1,0,0,0,0,0,NA,1,"UT","N/A",NA,9
3658,"default","M","list2","list2-D","Jeff",0.52,14463,13,"D","southern","S","Empty","D",NA,"default","It was interesting to be given so little information to form an initial assessment.  Made me realize I still only have a basic understanding of which states lean Republican and which states lean Democrat.  Obviously the chances of a person being one or the other increases when the state already leans that way. For example, living in Utah I know the chances of a person being Republican are very high.  As well as in some if not all of the Southern States.  I'm still learning about politics so I think that's all I can offer at this time.","No",45,"Yes","Thank You.",2,"Female",3,"None",NA,"Dem",0.35,1,0,0,0,0,0,NA,1,"UT","N/A",NA,10
3658,"default","F","list2","list2-D","Emma",0.77,6726,14,"R","southern","S","C","D",NA,"default","It was interesting to be given so little information to form an initial assessment.  Made me realize I still only have a basic understanding of which states lean Republican and which states lean Democrat.  Obviously the chances of a person being one or the other increases when the state already leans that way. For example, living in Utah I know the chances of a person being Republican are very high.  As well as in some if not all of the Southern States.  I'm still learning about politics so I think that's all I can offer at this time.","No",45,"Yes","Thank You.",2,"Female",3,"None",NA,"Dem",0.35,1,0,0,0,0,0,NA,1,"UT","N/A",NA,11
3658,"default","F","list2","list2-D","Anna",0.5,12370,15,"R","non-southern","N","C","D",NA,"default","It was interesting to be given so little information to form an initial assessment.  Made me realize I still only have a basic understanding of which states lean Republican and which states lean Democrat.  Obviously the chances of a person being one or the other increases when the state already leans that way. For example, living in Utah I know the chances of a person being Republican are very high.  As well as in some if not all of the Southern States.  I'm still learning about politics so I think that's all I can offer at this time.","No",45,"Yes","Thank You.",2,"Female",3,"None",NA,"Dem",0.35,1,0,0,0,0,0,NA,1,"UT","N/A",NA,12
3658,"default","F","list2","list2-D","Jennifer",0.51,15704,16,"D","non-southern","N","C","D",NA,"default","It was interesting to be given so little information to form an initial assessment.  Made me realize I still only have a basic understanding of which states lean Republican and which states lean Democrat.  Obviously the chances of a person being one or the other increases when the state already leans that way. For example, living in Utah I know the chances of a person being Republican are very high.  As well as in some if not all of the Southern States.  I'm still learning about politics so I think that's all I can offer at this time.","No",45,"Yes","Thank You.",2,"Female",3,"None",NA,"Dem",0.35,1,0,0,0,0,0,NA,1,"UT","N/A",NA,13
3658,"default","M","list2","list2-D","Paul",0.77,6557,17,"R","southern","S","C","D",NA,"default","It was interesting to be given so little information to form an initial assessment.  Made me realize I still only have a basic understanding of which states lean Republican and which states lean Democrat.  Obviously the chances of a person being one or the other increases when the state already leans that way. For example, living in Utah I know the chances of a person being Republican are very high.  As well as in some if not all of the Southern States.  I'm still learning about politics so I think that's all I can offer at this time.","No",45,"Yes","Thank You.",2,"Female",3,"None",NA,"Dem",0.35,1,0,0,0,0,0,NA,1,"UT","N/A",NA,14
3658,"default","M","list2","list2-D","Patrick",0.01,13121,18,"D","Republican","R","Party","D",NA,"default","It was interesting to be given so little information to form an initial assessment.  Made me realize I still only have a basic understanding of which states lean Republican and which states lean Democrat.  Obviously the chances of a person being one or the other increases when the state already leans that way. For example, living in Utah I know the chances of a person being Republican are very high.  As well as in some if not all of the Southern States.  I'm still learning about politics so I think that's all I can offer at this time.","No",45,"Yes","Thank You.",2,"Female",3,"None",NA,"Dem",0.35,1,0,0,0,0,0,NA,1,"UT","N/A",NA,15
3658,"default","F","list2","list2-D","Ashley",0.77,10249,19,"R","southern","S","C","D",NA,"default","It was interesting to be given so little information to form an initial assessment.  Made me realize I still only have a basic understanding of which states lean Republican and which states lean Democrat.  Obviously the chances of a person being one or the other increases when the state already leans that way. For example, living in Utah I know the chances of a person being Republican are very high.  As well as in some if not all of the Southern States.  I'm still learning about politics so I think that's all I can offer at this time.","No",45,"Yes","Thank You.",2,"Female",3,"None",NA,"Dem",0.35,1,0,0,0,0,0,NA,1,"UT","N/A",NA,16
3658,"default","M","list2","list2-D","Christopher",0.71,10257,20,"R","southern","S","C","D",NA,"default","It was interesting to be given so little information to form an initial assessment.  Made me realize I still only have a basic understanding of which states lean Republican and which states lean Democrat.  Obviously the chances of a person being one or the other increases when the state already leans that way. For example, living in Utah I know the chances of a person being Republican are very high.  As well as in some if not all of the Southern States.  I'm still learning about politics so I think that's all I can offer at this time.","No",45,"Yes","Thank You.",2,"Female",3,"None",NA,"Dem",0.35,1,0,0,0,0,0,NA,1,"UT","N/A",NA,17
3658,"default","M","list2","list2-D","Justin",0.98,6396,21,"D","Democrat","D","Party","D",NA,"default","It was interesting to be given so little information to form an initial assessment.  Made me realize I still only have a basic understanding of which states lean Republican and which states lean Democrat.  Obviously the chances of a person being one or the other increases when the state already leans that way. For example, living in Utah I know the chances of a person being Republican are very high.  As well as in some if not all of the Southern States.  I'm still learning about politics so I think that's all I can offer at this time.","No",45,"Yes","Thank You.",2,"Female",3,"None",NA,"Dem",0.35,1,0,0,0,0,0,NA,1,"UT","N/A",NA,18
3658,"default","M","list2","list2-D","Eric",0.51,10865,22,"D","non-southern","N","Empty","D",NA,"default","It was interesting to be given so little information to form an initial assessment.  Made me realize I still only have a basic understanding of which states lean Republican and which states lean Democrat.  Obviously the chances of a person being one or the other increases when the state already leans that way. For example, living in Utah I know the chances of a person being Republican are very high.  As well as in some if not all of the Southern States.  I'm still learning about politics so I think that's all I can offer at this time.","No",45,"Yes","Thank You.",2,"Female",3,"None",NA,"Dem",0.35,1,0,0,0,0,0,NA,1,"UT","N/A",NA,19
3658,"default","M","list2","list2-D","Kenneth",0.77,6858,23,"R","non-southern","N","C","D",NA,"default","It was interesting to be given so little information to form an initial assessment.  Made me realize I still only have a basic understanding of which states lean Republican and which states lean Democrat.  Obviously the chances of a person being one or the other increases when the state already leans that way. For example, living in Utah I know the chances of a person being Republican are very high.  As well as in some if not all of the Southern States.  I'm still learning about politics so I think that's all I can offer at this time.","No",45,"Yes","Thank You.",2,"Female",3,"None",NA,"Dem",0.35,1,0,0,0,0,0,NA,1,"UT","N/A",NA,20
3658,"default","F","list2","list2-D","Michelle",0.49,11297,24,"R","non-southern","N","C","D",NA,"default","It was interesting to be given so little information to form an initial assessment.  Made me realize I still only have a basic understanding of which states lean Republican and which states lean Democrat.  Obviously the chances of a person being one or the other increases when the state already leans that way. For example, living in Utah I know the chances of a person being Republican are very high.  As well as in some if not all of the Southern States.  I'm still learning about politics so I think that's all I can offer at this time.","No",45,"Yes","Thank You.",2,"Female",3,"None",NA,"Dem",0.35,1,0,0,0,0,0,NA,1,"UT","N/A",NA,21
3658,"default","M","list2","list2-D","Jason",0.51,10567,25,"D","southern","S","C","D",NA,"default","It was interesting to be given so little information to form an initial assessment.  Made me realize I still only have a basic understanding of which states lean Republican and which states lean Democrat.  Obviously the chances of a person being one or the other increases when the state already leans that way. For example, living in Utah I know the chances of a person being Republican are very high.  As well as in some if not all of the Southern States.  I'm still learning about politics so I think that's all I can offer at this time.","No",45,"Yes","Thank You.",2,"Female",3,"None",NA,"Dem",0.35,1,0,0,0,0,0,NA,1,"UT","N/A",NA,22
3658,"default","F","list2","list2-D","Amy",0.51,10278,26,"D","southern","S","C","D",NA,"default","It was interesting to be given so little information to form an initial assessment.  Made me realize I still only have a basic understanding of which states lean Republican and which states lean Democrat.  Obviously the chances of a person being one or the other increases when the state already leans that way. For example, living in Utah I know the chances of a person being Republican are very high.  As well as in some if not all of the Southern States.  I'm still learning about politics so I think that's all I can offer at this time.","No",45,"Yes","Thank You.",2,"Female",3,"None",NA,"Dem",0.35,1,0,0,0,0,0,NA,1,"UT","N/A",NA,23
3658,"default","F","list2","list2-D","Kimberly",0.51,10426,27,"D","southern","S","C","D",NA,"default","It was interesting to be given so little information to form an initial assessment.  Made me realize I still only have a basic understanding of which states lean Republican and which states lean Democrat.  Obviously the chances of a person being one or the other increases when the state already leans that way. For example, living in Utah I know the chances of a person being Republican are very high.  As well as in some if not all of the Southern States.  I'm still learning about politics so I think that's all I can offer at this time.","No",45,"Yes","Thank You.",2,"Female",3,"None",NA,"Dem",0.35,1,0,0,0,0,0,NA,1,"UT","N/A",NA,24
3659,"default","M","list1","list1-D","Justin",1,26977,4,"D","Democrat","D","Party","D",NA,"default","Interesting. Just looking at people and wondering what their political affiliation is by look, where they live and age.","No",50,"Yes","Fun.",3,"Male",3,"Spanish",NA,"Rep",0.22,0,0,0,1,0,0,NA,1,"CO",NA,NA,1
3659,"default","F","list1","list1-D","Elizabeth",0.28,15327,5,"R","non-southern","N","C","D",NA,"default","Interesting. Just looking at people and wondering what their political affiliation is by look, where they live and age.","No",50,"Yes","Fun.",3,"Male",3,"Spanish",NA,"Rep",0.22,0,0,0,1,0,0,NA,1,"CO",NA,NA,2
3659,"default","M","list1","list1-D","Eric",0.5,7495,6,"D","non-southern","N","Empty","D",NA,"default","Interesting. Just looking at people and wondering what their political affiliation is by look, where they live and age.","No",50,"Yes","Fun.",3,"Male",3,"Spanish",NA,"Rep",0.22,0,0,0,1,0,0,NA,1,"CO",NA,NA,3
3659,"default","F","list1","list1-D","Lisa",0.41,8617,7,"R","non-southern","N","C","D",NA,"default","Interesting. Just looking at people and wondering what their political affiliation is by look, where they live and age.","No",50,"Yes","Fun.",3,"Male",3,"Spanish",NA,"Rep",0.22,0,0,0,1,0,0,NA,1,"CO",NA,NA,4
3659,"default","F","list1","list1-D","Angela",0.84,7449,8,"R","southern","S","Empty","D",NA,"default","Interesting. Just looking at people and wondering what their political affiliation is by look, where they live and age.","No",50,"Yes","Fun.",3,"Male",3,"Spanish",NA,"Rep",0.22,0,0,0,1,0,0,NA,1,"CO",NA,NA,5
