"workerid","proliferate.condition.x","CC","SpeakerGender","block1","file","item_type","list","list_whichSpPoliticsFirst","matrix_clause","name","orientation","participant_beliefs","predicate","rt_block1","slide_number_block1","socialInfo","topic","whichSpPoliticsFirst","Southern_rating","age_correct","age_incorrect","age_rating","age_type","assertiveness_rating","block2","compQuestionType","democrat_rating","empathy_rating","femininity_rating","intelligence_rating","matrixName_correct","matrixName_incorrect","matrixName_type","republican_rating","rt_block2","slide_number_block2","spBelief_rating","block3","projection","rt_block3","slide_number_block3","true_false","trial","proliferate.condition.y","about","accent","age","american","comments","education","gender","income","language","otherParty","party","politics","race_asian","race_black","race_hawaiian","race_latino","race_native","race_otherRaceCheck","race_otherRaceText","race_white","state","state1year","whichAccent","error","raceCollapsed","multipleRaces"
4604,"default","medicaid is underfunded","F","block1","F-S-Sarah.png","critical","list2","list2_S","Allison doesn't think that","Sarah","liberal",0.84,"think",8161,4,"S","medicaid","S",0.71,30,37,1,"CORRECT",0.3,"block2","age_question",0.22,0.75,1,0.34,"Allison","Bill","CORRECT",0.73,28955,27,0.12,"block3",0.94,14696,41,NA,1,"default","Perception of someone's opinion by how they phrase a sentence.","No",46,"Yes",NA,2,"Male",4,"none","Constitution Party","Other",0.42,NA,NA,0,NA,NA,NA,NA,"white","MS","['MS', 'TN']",NA,NA,"white",0
4604,"default","it is too easy to buy guns","M","block1","M-N-Daniel.png","critical","list2","list2_S","Owen doesn't know that","Daniel","liberal",1,"know",5586,5,"N","gun_laws","S",0,34,21,1,"CORRECT",0.87,"block2","name_question",0.13,0.36,0.01,0.8,"Owen","Olivia","CORRECT",0.89,33959,22,0.08,"block3",1,27383,35,NA,2,"default","Perception of someone's opinion by how they phrase a sentence.","No",46,"Yes",NA,2,"Male",4,"none","Constitution Party","Other",0.42,NA,NA,0,NA,NA,NA,NA,"white","MS","['MS', 'TN']",NA,NA,"white",0
4604,"default","COVID is an overhyped virus","M","block1","M-S-Anthony.png","critical","list2","list2_S","Mary didn't suggest that","Anthony","conservative",0,"suggest",3553,6,"S","covid","S",1,29,40,0,"INCORRECT",0.76,"block2","name_question",0,0.74,0.04,0,"Mary","Sandra","INCORRECT",1,29960,26,1,"block3",0.08,15980,51,NA,3,"default","Perception of someone's opinion by how they phrase a sentence.","No",46,"Yes",NA,2,"Male",4,"none","Constitution Party","Other",0.42,NA,NA,0,NA,NA,NA,NA,"white","MS","['MS', 'TN']",NA,NA,"white",0
4604,"default","the 2020 election was legitimate","M","block1","M-S-Ryan.png","critical","list2","list2_S","Jen didn't confess that","Ryan","liberal",1,"confess",4127,7,"S","2020_election","S",1,25,39,0,"INCORRECT",0.26,"block2","name_question",0.04,0.67,0,0.14,"Jen","Shari","INCORRECT",0.92,37882,32,0.25,"block3",0.2,19884,37,NA,4,"default","Perception of someone's opinion by how they phrase a sentence.","No",46,"Yes",NA,2,"Male",4,"none","Constitution Party","Other",0.42,NA,NA,0,NA,NA,NA,NA,"white","MS","['MS', 'TN']",NA,NA,"white",0
4604,"default","Trump's policies improved the American economy","F","block1","F-N-Lisa.png","critical","list2","list2_S","Tony isn't annoyed that","Lisa","conservative",0,"be_annoyed",5077,8,"N","Trump_economy","S",0.26,34,20,1,"CORRECT",0.51,"block2","age_question",0.47,0.76,0.98,0.66,"Tony","Sam","CORRECT",0.58,31431,31,0.49,"block3",0.09,16351,52,NA,5,"default","Perception of someone's opinion by how they phrase a sentence.","No",46,"Yes",NA,2,"Male",4,"none","Constitution Party","Other",0.42,NA,NA,0,NA,NA,NA,NA,"white","MS","['MS', 'TN']",NA,NA,"white",0
4604,"default","mask mandates are unnecessary","F","block1","F-S-Amy.png","critical","list2","list2_S","Wendy doesn't think that","Amy","conservative",0.04,"think",4140,9,"S","masks","S",1,26,20,1,"CORRECT",0.39,"block2","name_question",0,0.47,1,0.19,"Wendy","Danielle","CORRECT",1,30212,30,1,"block3",0.05,13367,48,NA,6,"default","Perception of someone's opinion by how they phrase a sentence.","No",46,"Yes",NA,2,"Male",4,"none","Constitution Party","Other",0.42,NA,NA,0,NA,NA,NA,NA,"white","MS","['MS', 'TN']",NA,NA,"white",0
4604,"default","the capital of the US is in Ohio",NA,"block1","NA.png","O","list2","list2_S",NA,NA,NA,0,NA,4647,10,NA,"capital","S",NA,NA,NA,NA,NA,NA,NA,NA,NA,NA,NA,NA,NA,NA,NA,NA,NA,NA,NA,NA,NA,NA,NA,NA,7,"default","Perception of someone's opinion by how they phrase a sentence.","No",46,"Yes",NA,2,"Male",4,"none","Constitution Party","Other",0.42,NA,NA,0,NA,NA,NA,NA,"white","MS","['MS', 'TN']",NA,NA,"white",0
4604,"default","it is too hard to get an abortion","M","block1","M-S-Joseph.png","critical","list2","list2_S","Grace didn't suggest that","Joseph","liberal",0,"suggest",7477,11,"S","abortion","S",0.09,27,37,0,"INCORRECT",0.73,"block2","name_question",0.76,0.48,0.03,0.62,"Grace","Marie","INCORRECT",0.47,32647,21,0.15,"block3",0.27,20224,39,NA,8,"default","Perception of someone's opinion by how they phrase a sentence.","No",46,"Yes",NA,2,"Male",4,"none","Constitution Party","Other",0.42,NA,NA,0,NA,NA,NA,NA,"white","MS","['MS', 'TN']",NA,NA,"white",0
4604,"default","the military is underfunded","F","block1","F-S-Donna.png","critical","list2","list2_S","Emma didn't confess that","Donna","conservative",0.91,"confess",3704,12,"S","military","S",0.03,36,42,1,"CORRECT",0.79,"block2","age_question",0.87,0.64,1,0.49,"Emma","Fran","CORRECT",0.06,31816,33,0.97,"block3",0.96,15723,54,NA,9,"default","Perception of someone's opinion by how they phrase a sentence.","No",46,"Yes",NA,2,"Male",4,"none","Constitution Party","Other",0.42,NA,NA,0,NA,NA,NA,NA,"white","MS","['MS', 'TN']",NA,NA,"white",0
4604,"default","U.S. presidential elections are held in November",NA,"block1","NA.png","O","list2","list2_S",NA,NA,NA,1,NA,5499,13,NA,"elections","S",NA,NA,NA,NA,NA,NA,NA,NA,NA,NA,NA,NA,NA,NA,NA,NA,NA,NA,NA,NA,NA,NA,NA,NA,10,"default","Perception of someone's opinion by how they phrase a sentence.","No",46,"Yes",NA,2,"Male",4,"none","Constitution Party","Other",0.42,NA,NA,0,NA,NA,NA,NA,"white","MS","['MS', 'TN']",NA,NA,"white",0
4604,"default","Trump handled the pandemic well","M","block1","M-N-Tim.png","critical","list2","list2_S","Danny doesn't see that","Tim","conservative",0,"see",3844,14,"N","Trump_pandemic","S",0.33,26,19,0.98,"CORRECT",0.34,"block2","name_question",0.29,0.87,0.03,0.22,"Danny","Judith","CORRECT",0.64,28798,23,0.81,"block3",0.12,17260,43,NA,11,"default","Perception of someone's opinion by how they phrase a sentence.","No",46,"Yes",NA,2,"Male",4,"none","Constitution Party","Other",0.42,NA,NA,0,NA,NA,NA,NA,"white","MS","['MS', 'TN']",NA,NA,"white",0
4604,"default","the uprising at the Capitol was patriotic","M","block1","M-N-John.png","critical","list2","list2_S","Glenn doesn't know that","John","conservative",0,"know",4099,15,"N","capitol_uprising","S",0.1,30,31,1,"CORRECT",0.82,"block2","age_question",0.51,0.78,0.02,0.62,"Glenn","Charlotte","CORRECT",0.53,35227,24,0.21,"block3",0.95,12622,53,NA,12,"default","Perception of someone's opinion by how they phrase a sentence.","No",46,"Yes",NA,2,"Male",4,"none","Constitution Party","Other",0.42,NA,NA,0,NA,NA,NA,NA,"white","MS","['MS', 'TN']",NA,NA,"white",0
4604,"default","immigrants support the economy","F","block1","F-N-Helen.png","critical","list2","list2_S","Ben doesn't see that","Helen","liberal",1,"see",7258,16,"N","immigrants","S",0.1,29,21,0,"INCORRECT",0.81,"block2","age_question",0.78,0.61,1,0.66,"Ben","Elena","INCORRECT",0.19,29501,29,0.86,"block3",0.89,27344,50,NA,13,"default","Perception of someone's opinion by how they phrase a sentence.","No",46,"Yes",NA,2,"Male",4,"none","Constitution Party","Other",0.42,NA,NA,0,NA,NA,NA,NA,"white","MS","['MS', 'TN']",NA,NA,"white",0
4604,"default","the minimum wage is too low","F","block1","F-N-Elizabeth.png","critical","list2","list2_S","Ken isn't annoyed that","Elizabeth","liberal",1,"be_annoyed",3032,17,"N","minimum_wage","S",0.19,27,24,0,"INCORRECT",0.78,"block2","name_question",0.2,0.79,0.92,0.19,"Ken","Sally","INCORRECT",0.32,51075,20,0.81,"block3",0.9,12769,45,NA,14,"default","Perception of someone's opinion by how they phrase a sentence.","No",46,"Yes",NA,2,"Male",4,"none","Constitution Party","Other",0.42,NA,NA,0,NA,NA,NA,NA,"white","MS","['MS', 'TN']",NA,NA,"white",0
4604,"default","closing businesses during COVID was unnecessary","F","block1","F-S-Lily.png","MC","list2","list2_S",NA,"Lily","conservative",0.09,NA,3882,18,"S","lockdown","S",0,22,42,0,"INCORRECT",0.63,"block2","age_question",0.12,0.79,1,0.52,"the lockdown","vaccine mandates","INCORRECT",0.8,36076,25,0.86,"block3",1,12411,49,NA,15,"default","Perception of someone's opinion by how they phrase a sentence.","No",46,"Yes",NA,2,"Male",4,"none","Constitution Party","Other",0.42,NA,NA,0,NA,NA,NA,NA,"white","MS","['MS', 'TN']",NA,NA,"white",0
4697,"default","the 2020 election was legitimate","M","block1","M-N-Tim.png","critical","list2","list2_NS","Jen didn't suggest that","Tim","liberal",0.92,"suggest",5725,4,"N","2020_election","NS",0.53,26,24,0,"INCORRECT",0.49,"block2","name_question",0.51,0.5,0,0.37,"Jen","Sandra","INCORRECT",0.51,31560,21,0.51,"block3",0,14295,55,NA,1,"default","I think this experiment wanted to see if we associated a Southern accent with more conservative views.","No",34,"Yes","I sort of didn't like how varied the volume of the different speakers were. I had to adjust the volume for every speaker. In some cases, even individual speakers would be super loud at the very start of their sentence, and then they'd become really quiet after a few seconds.",3,"Male",4,"Japanese","Independents","Other",0.5,"asian",NA,0,NA,NA,NA,NA,NA,"HI","['AZ', 'HI']",NA,NA,"asian",0
4697,"default","the minimum wage is too low","F","block1","F-S-Donna.png","critical","list2","list2_NS","Ken didn't say that","Donna","liberal",0.95,"say",5759,5,"S","minimum_wage","NS",0.91,36,20,1,"CORRECT",0.57,"block2","age_question",0.35,0.5,0.7,0.5,"Ken","Elena","CORRECT",0.71,25128,24,0.33,"block3",0.5,15752,48,NA,2,"default","I think this experiment wanted to see if we associated a Southern accent with more conservative views.","No",34,"Yes","I sort of didn't like how varied the volume of the different speakers were. I had to adjust the volume for every speaker. In some cases, even individual speakers would be super loud at the very start of their sentence, and then they'd become really quiet after a few seconds.",3,"Male",4,"Japanese","Independents","Other",0.5,"asian",NA,0,NA,NA,NA,NA,NA,"HI","['AZ', 'HI']",NA,NA,"asian",0
4697,"default","closing businesses during COVID was unnecessary","F","block1","F-N-Ashley.png","MC","list2","list2_NS",NA,"Ashley","conservative",0.04,NA,2896,6,"N","lockdown","NS",0.52,28,41,0,"INCORRECT",0.58,"block2","age_question",0.51,0.52,0.51,0.51,"the lockdown","capitol punishment","INCORRECT",0.51,43074,20,0.51,"block3",1,13264,36,NA,3,"default","I think this experiment wanted to see if we associated a Southern accent with more conservative views.","No",34,"Yes","I sort of didn't like how varied the volume of the different speakers were. I had to adjust the volume for every speaker. In some cases, even individual speakers would be super loud at the very start of their sentence, and then they'd become really quiet after a few seconds.",3,"Male",4,"Japanese","Independents","Other",0.5,"asian",NA,0,NA,NA,NA,NA,NA,"HI","['AZ', 'HI']",NA,NA,"asian",0
4697,"default","it is too easy to buy guns","M","block1","M-S-Joseph.png","critical","list2","list2_NS","Owen didn't pretend that","Joseph","liberal",0.54,"pretend",3112,7,"S","gun_laws","NS",0.82,27,43,1,"CORRECT",0.56,"block2","name_question",0.4,0.51,0,0.51,"Owen","Sally","CORRECT",0.65,33808,26,0.12,"block3",1,39903,43,NA,4,"default","I think this experiment wanted to see if we associated a Southern accent with more conservative views.","No",34,"Yes","I sort of didn't like how varied the volume of the different speakers were. I had to adjust the volume for every speaker. In some cases, even individual speakers would be super loud at the very start of their sentence, and then they'd become really quiet after a few seconds.",3,"Male",4,"Japanese","Independents","Other",0.5,"asian",NA,0,NA,NA,NA,NA,NA,"HI","['AZ', 'HI']",NA,NA,"asian",0
4697,"default","the military is underfunded","F","block1","F-N-Elizabeth.png","critical","list2","list2_NS","Emma didn't suggest that","Elizabeth","conservative",0.49,"suggest",2768,8,"N","military","NS",0.25,27,39,1,"CORRECT",0.49,"block2","name_question",0.53,0.51,0.71,0.48,"Emma","Danielle","CORRECT",0.53,18295,30,0.52,"block3",1,20143,38,NA,5,"default","I think this experiment wanted to see if we associated a Southern accent with more conservative views.","No",34,"Yes","I sort of didn't like how varied the volume of the different speakers were. I had to adjust the volume for every speaker. In some cases, even individual speakers would be super loud at the very start of their sentence, and then they'd become really quiet after a few seconds.",3,"Male",4,"Japanese","Independents","Other",0.5,"asian",NA,0,NA,NA,NA,NA,NA,"HI","['AZ', 'HI']",NA,NA,"asian",0
4697,"default","mask mandates are unnecessary","F","block1","F-N-Lisa.png","critical","list2","list2_NS","Wendy doesn't see that","Lisa","conservative",0,"see",3416,9,"N","masks","NS",0.27,34,21,1,"CORRECT",0.69,"block2","age_question",0.51,0.5,0.65,0.51,"Wendy","Rhonda","CORRECT",0.51,22999,29,0.51,"block3",0,19527,49,NA,6,"default","I think this experiment wanted to see if we associated a Southern accent with more conservative views.","No",34,"Yes","I sort of didn't like how varied the volume of the different speakers were. I had to adjust the volume for every speaker. In some cases, even individual speakers would be super loud at the very start of their sentence, and then they'd become really quiet after a few seconds.",3,"Male",4,"Japanese","Independents","Other",0.5,"asian",NA,0,NA,NA,NA,NA,NA,"HI","['AZ', 'HI']",NA,NA,"asian",0
4697,"default","COVID is an overhyped virus","M","block1","M-N-John.png","critical","list2","list2_NS","Mary doesn't know that","John","conservative",0,"know",2528,10,"N","covid","NS",0.19,30,20,1,"CORRECT",0.44,"block2","age_question",0.6,0.52,0,0.5,"Mary","Sam","CORRECT",0.44,22608,27,0.11,"block3",1,21535,45,NA,7,"default","I think this experiment wanted to see if we associated a Southern accent with more conservative views.","No",34,"Yes","I sort of didn't like how varied the volume of the different speakers were. I had to adjust the volume for every speaker. In some cases, even individual speakers would be super loud at the very start of their sentence, and then they'd become really quiet after a few seconds.",3,"Male",4,"Japanese","Independents","Other",0.5,"asian",NA,0,NA,NA,NA,NA,NA,"HI","['AZ', 'HI']",NA,NA,"asian",0
4697,"default","the capital of the US is in Ohio",NA,"block1","NA.png","O","list2","list2_NS",NA,NA,NA,0,NA,3248,11,NA,"capital","NS",NA,NA,NA,NA,NA,NA,NA,NA,NA,NA,NA,NA,NA,NA,NA,NA,NA,NA,NA,NA,NA,NA,NA,NA,8,"default","I think this experiment wanted to see if we associated a Southern accent with more conservative views.","No",34,"Yes","I sort of didn't like how varied the volume of the different speakers were. I had to adjust the volume for every speaker. In some cases, even individual speakers would be super loud at the very start of their sentence, and then they'd become really quiet after a few seconds.",3,"Male",4,"Japanese","Independents","Other",0.5,"asian",NA,0,NA,NA,NA,NA,NA,"HI","['AZ', 'HI']",NA,NA,"asian",0
4697,"default","Trump handled the pandemic well","M","block1","M-S-Ryan.png","critical","list2","list2_NS","Danny didn't hear that","Ryan","conservative",0.08,"hear",3784,12,"S","Trump_pandemic","NS",0.72,25,37,1,"CORRECT",0.5,"block2","age_question",0.4,0.49,0,0.49,"Danny","Marie","CORRECT",0.63,17944,33,0.51,"block3",0.77,22772,35,NA,9,"default","I think this experiment wanted to see if we associated a Southern accent with more conservative views.","No",34,"Yes","I sort of didn't like how varied the volume of the different speakers were. I had to adjust the volume for every speaker. In some cases, even individual speakers would be super loud at the very start of their sentence, and then they'd become really quiet after a few seconds.",3,"Male",4,"Japanese","Independents","Other",0.5,"asian",NA,0,NA,NA,NA,NA,NA,"HI","['AZ', 'HI']",NA,NA,"asian",0
4697,"default","Trump's policies improved the American economy","F","block1","F-S-Amy.png","critical","list2","list2_NS","Tony didn't say that","Amy","conservative",0.45,"say",6343,13,"S","Trump_economy","NS",0.67,26,31,0,"INCORRECT",0.58,"block2","name_question",0.43,0.49,0.68,0.5,"Tony","Bill","INCORRECT",0.63,17223,31,0.63,"block3",1,14039,51,NA,10,"default","I think this experiment wanted to see if we associated a Southern accent with more conservative views.","No",34,"Yes","I sort of didn't like how varied the volume of the different speakers were. I had to adjust the volume for every speaker. In some cases, even individual speakers would be super loud at the very start of their sentence, and then they'd become really quiet after a few seconds.",3,"Male",4,"Japanese","Independents","Other",0.5,"asian",NA,0,NA,NA,NA,NA,NA,"HI","['AZ', 'HI']",NA,NA,"asian",0
4697,"default","medicaid is underfunded","F","block1","F-N-Helen.png","critical","list2","list2_NS","Allison doesn't see that","Helen","liberal",0.49,"see",2448,14,"N","medicaid","NS",0.36,29,24,0,"INCORRECT",0.52,"block2","age_question",0.51,0.52,0.72,0.52,"Allison","Isabelle","INCORRECT",0.51,32111,22,0.51,"block3",1,12719,50,NA,11,"default","I think this experiment wanted to see if we associated a Southern accent with more conservative views.","No",34,"Yes","I sort of didn't like how varied the volume of the different speakers were. I had to adjust the volume for every speaker. In some cases, even individual speakers would be super loud at the very start of their sentence, and then they'd become really quiet after a few seconds.",3,"Male",4,"Japanese","Independents","Other",0.5,"asian",NA,0,NA,NA,NA,NA,NA,"HI","['AZ', 'HI']",NA,NA,"asian",0
4697,"default","immigrants support the economy","F","block1","F-S-Sarah.png","critical","list2","list2_NS","Ben didn't hear that","Sarah","liberal",0.5,"hear",8520,15,"S","immigrants","NS",0.89,30,42,0,"INCORRECT",0.59,"block2","name_question",0.32,0.5,0.64,0.5,"Ben","Shari","INCORRECT",0.7,31864,25,0.4,"block3",1,15289,44,NA,12,"default","I think this experiment wanted to see if we associated a Southern accent with more conservative views.","No",34,"Yes","I sort of didn't like how varied the volume of the different speakers were. I had to adjust the volume for every speaker. In some cases, even individual speakers would be super loud at the very start of their sentence, and then they'd become really quiet after a few seconds.",3,"Male",4,"Japanese","Independents","Other",0.5,"asian",NA,0,NA,NA,NA,NA,NA,"HI","['AZ', 'HI']",NA,NA,"asian",0
4697,"default","U.S. presidential elections are held in November",NA,"block1","NA.png","O","list2","list2_NS",NA,NA,NA,1,NA,3608,16,NA,"elections","NS",NA,NA,NA,NA,NA,NA,NA,NA,NA,NA,NA,NA,NA,NA,NA,NA,NA,NA,NA,NA,NA,NA,NA,NA,13,"default","I think this experiment wanted to see if we associated a Southern accent with more conservative views.","No",34,"Yes","I sort of didn't like how varied the volume of the different speakers were. I had to adjust the volume for every speaker. In some cases, even individual speakers would be super loud at the very start of their sentence, and then they'd become really quiet after a few seconds.",3,"Male",4,"Japanese","Independents","Other",0.5,"asian",NA,0,NA,NA,NA,NA,NA,"HI","['AZ', 'HI']",NA,NA,"asian",0
4697,"default","the uprising at the Capitol was patriotic","M","block1","M-S-Anthony.png","critical","list2","list2_NS","Glenn didn't pretend that","Anthony","conservative",0,"pretend",3320,17,"S","capitol_uprising","NS",0.87,29,40,1,"CORRECT",0.63,"block2","name_question",0.3,0.49,0,0.49,"Glenn","Libby","CORRECT",0.73,24608,28,0.51,"block3",0.49,37719,54,NA,14,"default","I think this experiment wanted to see if we associated a Southern accent with more conservative views.","No",34,"Yes","I sort of didn't like how varied the volume of the different speakers were. I had to adjust the volume for every speaker. In some cases, even individual speakers would be super loud at the very start of their sentence, and then they'd become really quiet after a few seconds.",3,"Male",4,"Japanese","Independents","Other",0.5,"asian",NA,0,NA,NA,NA,NA,NA,"HI","['AZ', 'HI']",NA,NA,"asian",0
4697,"default","it is too hard to get an abortion","M","block1","M-N-Daniel.png","critical","list2","list2_NS","Grace doesn't know that","Daniel","liberal",0.5,"know",6712,18,"N","abortion","NS",0.21,34,37,0,"INCORRECT",0.5,"block2","name_question",0.65,0.5,0.26,0.49,"Grace","Judith","INCORRECT",0.35,30495,23,0.57,"block3",1,12216,52,NA,15,"default","I think this experiment wanted to see if we associated a Southern accent with more conservative views.","No",34,"Yes","I sort of didn't like how varied the volume of the different speakers were. I had to adjust the volume for every speaker. In some cases, even individual speakers would be super loud at the very start of their sentence, and then they'd become really quiet after a few seconds.",3,"Male",4,"Japanese","Independents","Other",0.5,"asian",NA,0,NA,NA,NA,NA,NA,"HI","['AZ', 'HI']",NA,NA,"asian",0
4401,"default","U.S. presidential elections are held in November",NA,"block1","NA.png","O","list2","list2_S",NA,NA,NA,0.98,NA,10258,4,NA,"elections","S",NA,NA,NA,NA,NA,NA,NA,NA,NA,NA,NA,NA,NA,NA,NA,NA,NA,NA,NA,NA,NA,NA,NA,NA,1,"default","perceptions of people","Yes",48,"Yes","none",2,"Female",0,NA,NA,"Green",0.51,NA,"black",0,NA,NA,NA,NA,NA,"LA","['LA']","Southern",NA,"black",0
4401,"default","the 2020 election was legitimate","M","block1","M-S-Ryan.png","critical","list2","list2_S","Jen isn't right that","Ryan","liberal",0.94,"be_right",5772,5,"S","2020_election","S",0.96,25,21,0.97,"CORRECT",0.83,"block2","name_question",0.14,0.59,0,0.78,"Jen","Lucy","CORRECT",0.85,32942,25,0.89,"block3",0.87,51735,41,NA,2,"default","perceptions of people","Yes",48,"Yes","none",2,"Female",0,NA,NA,"Green",0.51,NA,"black",0,NA,NA,NA,NA,NA,"LA","['LA']","Southern",NA,"black",0
4401,"default","it is too easy to buy guns","M","block1","M-N-Daniel.png","critical","list2","list2_S","Owen doesn't see that","Daniel","liberal",1,"see",5155,6,"N","gun_laws","S",0.02,34,41,0.02,"INCORRECT",0.87,"block2","age_question",0.49,0.56,0.01,0.79,"Owen","Charlotte","INCORRECT",0.14,32857,26,0.8,"block3",0.94,10672,52,NA,3,"default","perceptions of people","Yes",48,"Yes","none",2,"Female",0,NA,NA,"Green",0.51,NA,"black",0,NA,NA,NA,NA,NA,"LA","['LA']","Southern",NA,"black",0
4401,"default","the minimum wage is too low","F","block1","F-N-Elizabeth.png","critical","list2","list2_S","Ken didn't pretend that","Elizabeth","liberal",0.97,"pretend",3434,7,"N","minimum_wage","S",0,27,20,0.04,"INCORRECT",0.87,"block2","name_question",0.02,0.82,0.98,0.9,"Ken","Sam","INCORRECT",0.98,36911,30,0.94,"block3",0.95,15142,50,NA,4,"default","perceptions of people","Yes",48,"Yes","none",2,"Female",0,NA,NA,"Green",0.51,NA,"black",0,NA,NA,NA,NA,NA,"LA","['LA']","Southern",NA,"black",0
4401,"default","the capital of the US is in Ohio",NA,"block1","NA.png","O","list2","list2_S",NA,NA,NA,0.01,NA,6902,8,NA,"capital","S",NA,NA,NA,NA,NA,NA,NA,NA,NA,NA,NA,NA,NA,NA,NA,NA,NA,NA,NA,NA,NA,NA,NA,NA,5,"default","perceptions of people","Yes",48,"Yes","none",2,"Female",0,NA,NA,"Green",0.51,NA,"black",0,NA,NA,NA,NA,NA,"LA","['LA']","Southern",NA,"black",0
4401,"default","medicaid is underfunded","F","block1","F-S-Sarah.png","critical","list2","list2_S","Allison doesn't know that","Sarah","liberal",0.87,"know",8476,9,"S","medicaid","S",0.98,30,37,0.96,"CORRECT",0.87,"block2","age_question",0.88,0.87,0.96,0.81,"Allison","Sally","CORRECT",0.1,26957,24,0.67,"block3",0.96,18690,42,NA,6,"default","perceptions of people","Yes",48,"Yes","none",2,"Female",0,NA,NA,"Green",0.51,NA,"black",0,NA,NA,NA,NA,NA,"LA","['LA']","Southern",NA,"black",0
4401,"default","it is too hard to get an abortion","M","block1","M-S-Joseph.png","critical","list2","list2_S","Grace didn't hear that","Joseph","liberal",0.05,"hear",5023,10,"S","abortion","S",0.08,27,18,0.97,"CORRECT",0.72,"block2","name_question",0.5,0.71,0.02,0.74,"Grace","Elena","CORRECT",0.48,36960,27,0.1,"block3",0.12,25646,37,NA,7,"default","perceptions of people","Yes",48,"Yes","none",2,"Female",0,NA,NA,"Green",0.51,NA,"black",0,NA,NA,NA,NA,NA,"LA","['LA']","Southern",NA,"black",0
4401,"default","COVID is an overhyped virus","M","block1","M-S-Anthony.png","critical","list2","list2_S","Mary didn't hear that","Anthony","conservative",0.52,"hear",4790,11,"S","covid","S",0.92,29,19,0.04,"INCORRECT",0.52,"block2","name_question",0.91,0.52,0.01,0.51,"Mary","Shari","INCORRECT",0.1,37396,32,0.49,"block3",0.98,13480,55,NA,8,"default","perceptions of people","Yes",48,"Yes","none",2,"Female",0,NA,NA,"Green",0.51,NA,"black",0,NA,NA,NA,NA,NA,"LA","['LA']","Southern",NA,"black",0
4401,"default","Trump handled the pandemic well","M","block1","M-N-Tim.png","critical","list2","list2_S","Danny didn't admit that","Tim","conservative",0.04,"admit",4246,12,"N","Trump_pandemic","S",0.02,26,20,0.98,"CORRECT",0.55,"block2","age_question",0.48,0.51,0.03,0.55,"Danny","Sandra","CORRECT",0.52,30567,23,0.82,"block3",0.51,15897,44,NA,9,"default","perceptions of people","Yes",48,"Yes","none",2,"Female",0,NA,NA,"Green",0.51,NA,"black",0,NA,NA,NA,NA,NA,"LA","['LA']","Southern",NA,"black",0
4401,"default","the military is underfunded","F","block1","F-S-Donna.png","critical","list2","list2_S","Emma isn't right that","Donna","conservative",0.96,"be_right",3777,13,"S","military","S",0.06,36,39,0.03,"INCORRECT",0.78,"block2","age_question",0.11,0.7,0.99,0.74,"Emma","Bill","INCORRECT",0.84,79631,20,0.85,"block3",0.97,14727,43,NA,10,"default","perceptions of people","Yes",48,"Yes","none",2,"Female",0,NA,NA,"Green",0.51,NA,"black",0,NA,NA,NA,NA,NA,"LA","['LA']","Southern",NA,"black",0
4401,"default","immigrants support the economy","F","block1","F-N-Helen.png","critical","list2","list2_S","Ben didn't admit that","Helen","liberal",0.52,"admit",3609,14,"N","immigrants","S",0.03,29,31,0.04,"INCORRECT",0.85,"block2","age_question",0.05,0.53,0.97,0.89,"Ben","Olivia","INCORRECT",0.92,37205,31,0.07,"block3",0.48,15673,53,NA,11,"default","perceptions of people","Yes",48,"Yes","none",2,"Female",0,NA,NA,"Green",0.51,NA,"black",0,NA,NA,NA,NA,NA,"LA","['LA']","Southern",NA,"black",0
4401,"default","closing businesses during COVID was unnecessary","F","block1","F-S-Lily.png","MC","list2","list2_S",NA,"Lily","conservative",0.49,NA,4903,15,"S","lockdown","S",0.02,22,42,0.96,"CORRECT",0.85,"block2","age_question",0.97,0.95,0.95,0.81,"the lockdown","vaccine mandates","CORRECT",0.04,41449,33,0.52,"block3",0.92,9941,54,NA,12,"default","perceptions of people","Yes",48,"Yes","none",2,"Female",0,NA,NA,"Green",0.51,NA,"black",0,NA,NA,NA,NA,NA,"LA","['LA']","Southern",NA,"black",0
4401,"default","mask mandates are unnecessary","F","block1","F-S-Amy.png","critical","list2","list2_S","Wendy doesn't know that","Amy","conservative",0.07,"know",7036,16,"S","masks","S",0.96,26,37,0.02,"INCORRECT",0.85,"block2","name_question",0.08,0.54,0.96,0.84,"Wendy","Judith","INCORRECT",0.95,40367,29,0.08,"block3",0.91,17534,45,NA,13,"default","perceptions of people","Yes",48,"Yes","none",2,"Female",0,NA,NA,"Green",0.51,NA,"black",0,NA,NA,NA,NA,NA,"LA","['LA']","Southern",NA,"black",0
4401,"default","Trump's policies improved the American economy","F","block1","F-N-Lisa.png","critical","list2","list2_S","Tony didn't pretend that","Lisa","conservative",0.46,"pretend",6506,17,"N","Trump_economy","S",0.03,34,18,0.03,"INCORRECT",0.87,"block2","name_question",0.05,0.54,0.98,0.86,"Tony","Fran","INCORRECT",0.9,39342,22,0.8,"block3",0.61,37525,35,NA,14,"default","perceptions of people","Yes",48,"Yes","none",2,"Female",0,NA,NA,"Green",0.51,NA,"black",0,NA,NA,NA,NA,NA,"LA","['LA']","Southern",NA,"black",0
4401,"default","the uprising at the Capitol was patriotic","M","block1","M-N-John.png","critical","list2","list2_S","Glenn doesn't see that","John","conservative",0.03,"see",4673,18,"N","capitol_uprising","S",0.04,30,40,0.97,"CORRECT",0.66,"block2","name_question",0.03,0.46,0.03,0.62,"Glenn","Libby","CORRECT",0.97,770784,28,0.49,"block3",0.91,16134,47,NA,15,"default","perceptions of people","Yes",48,"Yes","none",2,"Female",0,NA,NA,"Green",0.51,NA,"black",0,NA,NA,NA,NA,NA,"LA","['LA']","Southern",NA,"black",0
4590,"default","U.S. presidential elections are held in November",NA,"block1","NA.png","O","list2","list2_NS",NA,NA,NA,1,NA,7047,4,NA,"elections","NS",NA,NA,NA,NA,NA,NA,NA,NA,NA,NA,NA,NA,NA,NA,NA,NA,NA,NA,NA,NA,NA,NA,NA,NA,1,"default","Perceptions of inteligence and political affiliation based on location and accent.","No",38,"Yes",NA,3,"Male",4,NA,NA,"Dem",0,NA,"black",0,"latino","native","other","Multi-ethnic","white","NY","['NY']",NA,NA,"white, black, latino, native, other",0
4590,"default","closing businesses during COVID was unnecessary","F","block1","F-N-Ashley.png","MC","list2","list2_NS",NA,"Ashley","conservative",0,NA,5229,5,"N","lockdown","NS",0,28,42,1,"CORRECT",0.36,"block2","age_question",1,0.58,1,0.83,"the lockdown","capitol punishment","CORRECT",0,24926,22,0,"block3",1,11841,49,NA,2,"default","Perceptions of inteligence and political affiliation based on location and accent.","No",38,"Yes",NA,3,"Male",4,NA,NA,"Dem",0,NA,"black",0,"latino","native","other","Multi-ethnic","white","NY","['NY']",NA,NA,"white, black, latino, native, other",0
4590,"default","mask mandates are unnecessary","F","block1","F-N-Lisa.png","critical","list2","list2_NS","Wendy didn't pretend that","Lisa","conservative",0,"pretend",3499,6,"N","masks","NS",0,34,37,0,"INCORRECT",0.52,"block2","name_question",0.73,0.71,1,0.67,"Wendy","Sally","INCORRECT",0.27,26297,25,0,"block3",0.9,13334,50,NA,3,"default","Perceptions of inteligence and political affiliation based on location and accent.","No",38,"Yes",NA,3,"Male",4,NA,NA,"Dem",0,NA,"black",0,"latino","native","other","Multi-ethnic","white","NY","['NY']",NA,NA,"white, black, latino, native, other",0
4590,"default","the capital of the US is in Ohio",NA,"block1","NA.png","O","list2","list2_NS",NA,NA,NA,0,NA,4819,7,NA,"capital","NS",NA,NA,NA,NA,NA,NA,NA,NA,NA,NA,NA,NA,NA,NA,NA,NA,NA,NA,NA,NA,NA,NA,NA,NA,4,"default","Perceptions of inteligence and political affiliation based on location and accent.","No",38,"Yes",NA,3,"Male",4,NA,NA,"Dem",0,NA,"black",0,"latino","native","other","Multi-ethnic","white","NY","['NY']",NA,NA,"white, black, latino, native, other",0
4590,"default","it is too easy to buy guns","M","block1","M-S-Joseph.png","critical","list2","list2_NS","Owen doesn't know that","Joseph","liberal",0,"know",4523,8,"S","gun_laws","NS",1,27,41,1,"CORRECT",0.74,"block2","name_question",0.13,0.25,0,0.5,"Owen","Lucy","CORRECT",0.88,21155,28,0,"block3",1,11382,39,NA,5,"default","Perceptions of inteligence and political affiliation based on location and accent.","No",38,"Yes",NA,3,"Male",4,NA,NA,"Dem",0,NA,"black",0,"latino","native","other","Multi-ethnic","white","NY","['NY']",NA,NA,"white, black, latino, native, other",0
4590,"default","Trump handled the pandemic well","M","block1","M-S-Ryan.png","critical","list2","list2_NS","Danny didn't acknowledge","Ryan","conservative",0,"acknowledge",3494,9,"S","Trump_pandemic","NS",1,25,40,0,"INCORRECT",0.65,"block2","age_question",0.09,0.26,0,0.47,"Danny","Rhonda","INCORRECT",0.89,20160,29,0.88,"block3",1,11527,37,NA,6,"default","Perceptions of inteligence and political affiliation based on location and accent.","No",38,"Yes",NA,3,"Male",4,NA,NA,"Dem",0,NA,"black",0,"latino","native","other","Multi-ethnic","white","NY","['NY']",NA,NA,"white, black, latino, native, other",0
4590,"default","the 2020 election was legitimate","M","block1","M-N-Tim.png","critical","list2","list2_NS","Jen didn't say that","Tim","liberal",1,"say",3106,10,"N","2020_election","NS",0,26,18,0,"INCORRECT",0.76,"block2","name_question",0.54,0.55,0,0.51,"Jen","Sam","INCORRECT",0.46,33342,23,1,"block3",1,14637,45,NA,7,"default","Perceptions of inteligence and political affiliation based on location and accent.","No",38,"Yes",NA,3,"Male",4,NA,NA,"Dem",0,NA,"black",0,"latino","native","other","Multi-ethnic","white","NY","['NY']",NA,NA,"white, black, latino, native, other",0
4590,"default","immigrants support the economy","F","block1","F-S-Sarah.png","critical","list2","list2_NS","Ben didn't acknowledge","Sarah","liberal",1,"acknowledge",3567,11,"S","immigrants","NS",1,30,19,0,"INCORRECT",0.21,"block2","age_question",0.14,0.53,1,0.47,"Ben","Bill","INCORRECT",0.88,27341,30,0,"block3",1,13800,36,NA,8,"default","Perceptions of inteligence and political affiliation based on location and accent.","No",38,"Yes",NA,3,"Male",4,NA,NA,"Dem",0,NA,"black",0,"latino","native","other","Multi-ethnic","white","NY","['NY']",NA,NA,"white, black, latino, native, other",0
4590,"default","Trump's policies improved the American economy","F","block1","F-S-Amy.png","critical","list2","list2_NS","Tony isn't right that","Amy","conservative",0,"be_right",5131,12,"S","Trump_economy","NS",1,26,18,0,"INCORRECT",0.27,"block2","name_question",0.13,0.57,1,0.52,"Tony","Marie","INCORRECT",0.83,24088,26,0.82,"block3",0,27373,53,NA,9,"default","Perceptions of inteligence and political affiliation based on location and accent.","No",38,"Yes",NA,3,"Male",4,NA,NA,"Dem",0,NA,"black",0,"latino","native","other","Multi-ethnic","white","NY","['NY']",NA,NA,"white, black, latino, native, other",0
4590,"default","medicaid is underfunded","F","block1","F-N-Helen.png","critical","list2","list2_NS","Allison didn't pretend that","Helen","liberal",1,"pretend",35565,13,"N","medicaid","NS",0,29,39,0,"INCORRECT",0.28,"block2","name_question",0.86,0.57,1,0.68,"Allison","Sandra","INCORRECT",0.14,21646,31,0.97,"block3",0.92,15748,48,NA,10,"default","Perceptions of inteligence and political affiliation based on location and accent.","No",38,"Yes",NA,3,"Male",4,NA,NA,"Dem",0,NA,"black",0,"latino","native","other","Multi-ethnic","white","NY","['NY']",NA,NA,"white, black, latino, native, other",0
4590,"default","the uprising at the Capitol was patriotic","M","block1","M-S-Anthony.png","critical","list2","list2_NS","Glenn doesn't know that","Anthony","conservative",0,"know",4403,14,"S","capitol_uprising","NS",1,29,21,1,"CORRECT",0.17,"block2","name_question",0,0.18,0,0.41,"Glenn","Charlotte","CORRECT",1,25236,24,1,"block3",1,17146,43,NA,11,"default","Perceptions of inteligence and political affiliation based on location and accent.","No",38,"Yes",NA,3,"Male",4,NA,NA,"Dem",0,NA,"black",0,"latino","native","other","Multi-ethnic","white","NY","['NY']",NA,NA,"white, black, latino, native, other",0
4590,"default","the military is underfunded","F","block1","F-N-Elizabeth.png","critical","list2","list2_NS","Emma didn't say that","Elizabeth","conservative",0,"say",3965,15,"N","military","NS",0,27,42,1,"CORRECT",0.51,"block2","age_question",0.87,0.82,1,0.74,"Emma","Shari","CORRECT",0.14,31205,21,0,"block3",1,11190,41,NA,12,"default","Perceptions of inteligence and political affiliation based on location and accent.","No",38,"Yes",NA,3,"Male",4,NA,NA,"Dem",0,NA,"black",0,"latino","native","other","Multi-ethnic","white","NY","['NY']",NA,NA,"white, black, latino, native, other",0
4590,"default","the minimum wage is too low","F","block1","F-S-Donna.png","critical","list2","list2_NS","Ken isn't right that","Donna","liberal",1,"be_right",3687,16,"S","minimum_wage","NS",1,36,37,1,"CORRECT",0.35,"block2","name_question",0.13,0.47,1,0.65,"Ken","Danielle","CORRECT",0.81,50560,20,0.23,"block3",1,11892,52,NA,13,"default","Perceptions of inteligence and political affiliation based on location and accent.","No",38,"Yes",NA,3,"Male",4,NA,NA,"Dem",0,NA,"black",0,"latino","native","other","Multi-ethnic","white","NY","['NY']",NA,NA,"white, black, latino, native, other",0
4590,"default","COVID is an overhyped virus","M","block1","M-N-John.png","critical","list2","list2_NS","Mary didn't admit that","John","conservative",0,"admit",3280,17,"N","covid","NS",0,30,43,1,"CORRECT",0.32,"block2","age_question",0.85,0.15,0,0.53,"Mary","Olivia","CORRECT",0.16,24814,27,0,"block3",1,18402,38,NA,14,"default","Perceptions of inteligence and political affiliation based on location and accent.","No",38,"Yes",NA,3,"Male",4,NA,NA,"Dem",0,NA,"black",0,"latino","native","other","Multi-ethnic","white","NY","['NY']",NA,NA,"white, black, latino, native, other",0
4590,"default","it is too hard to get an abortion","M","block1","M-N-Daniel.png","critical","list2","list2_NS","Grace didn't admit that","Daniel","liberal",0,"admit",5364,18,"N","abortion","NS",0,34,20,1,"CORRECT",0.44,"block2","age_question",0.88,0.71,0,0.52,"Grace","Isabelle","CORRECT",0.13,20887,33,0,"block3",1,15780,40,NA,15,"default","Perceptions of inteligence and political affiliation based on location and accent.","No",38,"Yes",NA,3,"Male",4,NA,NA,"Dem",0,NA,"black",0,"latino","native","other","Multi-ethnic","white","NY","['NY']",NA,NA,"white, black, latino, native, other",0
4570,"default","U.S. presidential elections are held in November",NA,"block1","NA.png","O","list1","list1_S",NA,NA,NA,0.87,NA,3549,4,NA,"elections","S",NA,NA,NA,NA,NA,NA,NA,NA,NA,NA,NA,NA,NA,NA,NA,NA,NA,NA,NA,NA,NA,NA,NA,NA,1,"default","Evaluation of political and social belief when compared with audio clip/sample of a particular person speaking (about a person or political issue).","Yes",30,"Yes","It was difficult to pry true intention and feeling from one line, but I did my best and very much enjoyed this task and challenging myself to think about it.",3,"Male",1,"N/A",NA,"Dem",0.46,NA,NA,0,NA,NA,NA,NA,"white","PA","['PA']","Philadelphia",NA,"white",0
4570,"default","the capital of the US is in Ohio",NA,"block1","NA.png","O","list1","list1_S",NA,NA,NA,0,NA,2913,5,NA,"capital","S",NA,NA,NA,NA,NA,NA,NA,NA,NA,NA,NA,NA,NA,NA,NA,NA,NA,NA,NA,NA,NA,NA,NA,NA,2,"default","Evaluation of political and social belief when compared with audio clip/sample of a particular person speaking (about a person or political issue).","Yes",30,"Yes","It was difficult to pry true intention and feeling from one line, but I did my best and very much enjoyed this task and challenging myself to think about it.",3,"Male",1,"N/A",NA,"Dem",0.46,NA,NA,0,NA,NA,NA,NA,"white","PA","['PA']","Philadelphia",NA,"white",0
4570,"default","mask mandates are necessary","F","block1","F-S-Amy.png","critical","list1","list1_S","Wendy didn't hear that","Amy","liberal",0.43,"hear",3309,6,"S","masks","S",1,26,37,0,"INCORRECT",0.35,"block2","age_question",0.27,0.3,0.66,0.35,"Wendy","Fran","INCORRECT",0.8,13045,31,0.2,"block3",0.19,58180,40,NA,3,"default","Evaluation of political and social belief when compared with audio clip/sample of a particular person speaking (about a person or political issue).","Yes",30,"Yes","It was difficult to pry true intention and feeling from one line, but I did my best and very much enjoyed this task and challenging myself to think about it.",3,"Male",1,"N/A",NA,"Dem",0.46,NA,NA,0,NA,NA,NA,NA,"white","PA","['PA']","Philadelphia",NA,"white",0
4570,"default","it is too easy to get an abortion","M","block1","M-S-Joseph.png","critical","list1","list1_S","Grace didn't admit that","Joseph","conservative",0.01,"admit",2609,7,"S","abortion","S",0.68,27,21,1,"CORRECT",0.54,"block2","name_question",0.47,0.4,0.49,0.43,"Grace","Sam","CORRECT",0.58,78602,23,0.6,"block3",0.29,15087,42,NA,4,"default","Evaluation of political and social belief when compared with audio clip/sample of a particular person speaking (about a person or political issue).","Yes",30,"Yes","It was difficult to pry true intention and feeling from one line, but I did my best and very much enjoyed this task and challenging myself to think about it.",3,"Male",1,"N/A",NA,"Dem",0.46,NA,NA,0,NA,NA,NA,NA,"white","PA","['PA']","Philadelphia",NA,"white",0
4570,"default","Trump handled the pandemic badly","M","block1","M-N-Tim.png","critical","list1","list1_S","Danny didn't say that","Tim","liberal",0.95,"say",2666,8,"N","Trump_pandemic","S",0.07,26,24,0,"INCORRECT",0.6,"block2","name_question",0.55,0.38,0.27,0.5,"Danny","Marie","INCORRECT",0.43,81569,26,0.91,"block3",0.38,11759,47,NA,5,"default","Evaluation of political and social belief when compared with audio clip/sample of a particular person speaking (about a person or political issue).","Yes",30,"Yes","It was difficult to pry true intention and feeling from one line, but I did my best and very much enjoyed this task and challenging myself to think about it.",3,"Male",1,"N/A",NA,"Dem",0.46,NA,NA,0,NA,NA,NA,NA,"white","PA","['PA']","Philadelphia",NA,"white",0
4570,"default","COVID is a dangerous virus","M","block1","M-S-Anthony.png","critical","list1","list1_S","Mary didn't admit that","Anthony","liberal",0.44,"admit",2336,9,"S","covid","S",1,29,31,0,"INCORRECT",0.21,"block2","name_question",0.16,0.29,0.31,0.42,"Mary","Isabelle","INCORRECT",0.77,54267,33,0.09,"block3",0.07,46898,45,NA,6,"default","Evaluation of political and social belief when compared with audio clip/sample of a particular person speaking (about a person or political issue).","Yes",30,"Yes","It was difficult to pry true intention and feeling from one line, but I did my best and very much enjoyed this task and challenging myself to think about it.",3,"Male",1,"N/A",NA,"Dem",0.46,NA,NA,0,NA,NA,NA,NA,"white","PA","['PA']","Philadelphia",NA,"white",0
4570,"default","the 2020 election was rigged","M","block1","M-S-Ryan.png","critical","list1","list1_S","Jen didn't confess that","Ryan","conservative",0,"confess",2720,10,"S","2020_election","S",1,25,20,0,"INCORRECT",0.42,"block2","age_question",0.35,0.39,0.54,0.46,"Jen","Shari","INCORRECT",0.76,54846,27,0.49,"block3",0.46,12138,51,NA,7,"default","Evaluation of political and social belief when compared with audio clip/sample of a particular person speaking (about a person or political issue).","Yes",30,"Yes","It was difficult to pry true intention and feeling from one line, but I did my best and very much enjoyed this task and challenging myself to think about it.",3,"Male",1,"N/A",NA,"Dem",0.46,NA,NA,0,NA,NA,NA,NA,"white","PA","['PA']","Philadelphia",NA,"white",0
4570,"default","closing businesses during COVID was necessary","F","block1","F-S-Lily.png","MC","list1","list1_S",NA,"Lily","liberal",0.66,NA,3899,11,"S","lockdown","S",0,22,19,0,"INCORRECT",0.65,"block2","age_question",0.77,0.63,0.49,0.63,"the lockdown","universal basic income","INCORRECT",0.22,18883,25,0.68,"block3",0.9,9278,35,NA,8,"default","Evaluation of political and social belief when compared with audio clip/sample of a particular person speaking (about a person or political issue).","Yes",30,"Yes","It was difficult to pry true intention and feeling from one line, but I did my best and very much enjoyed this task and challenging myself to think about it.",3,"Male",1,"N/A",NA,"Dem",0.46,NA,NA,0,NA,NA,NA,NA,"white","PA","['PA']","Philadelphia",NA,"white",0
4570,"default","immigrants steal jobs from Americans","F","block1","F-N-Helen.png","critical","list1","list1_S","Ben didn't say that","Helen","conservative",0.13,"say",3752,12,"N","immigrants","S",0.08,29,41,1,"CORRECT",0.29,"block2","name_question",0.56,0.54,0.73,0.52,"Ben","Judith","CORRECT",0.4,32885,32,0.1,"block3",0.08,51473,54,NA,9,"default","Evaluation of political and social belief when compared with audio clip/sample of a particular person speaking (about a person or political issue).","Yes",30,"Yes","It was difficult to pry true intention and feeling from one line, but I did my best and very much enjoyed this task and challenging myself to think about it.",3,"Male",1,"N/A",NA,"Dem",0.46,NA,NA,0,NA,NA,NA,NA,"white","PA","['PA']","Philadelphia",NA,"white",0
4570,"default","Trump's policies damaged the American economy","F","block1","F-N-Lisa.png","critical","list1","list1_S","Tony didn't acknowledge","Lisa","liberal",0.68,"acknowledge",31664,13,"N","Trump_economy","S",0,34,37,1,"CORRECT",0.31,"block2","age_question",0.74,0.66,0.61,0.56,"Tony","Charlotte","CORRECT",0.33,14642,28,0.8,"block3",0.24,12625,41,NA,10,"default","Evaluation of political and social belief when compared with audio clip/sample of a particular person speaking (about a person or political issue).","Yes",30,"Yes","It was difficult to pry true intention and feeling from one line, but I did my best and very much enjoyed this task and challenging myself to think about it.",3,"Male",1,"N/A",NA,"Dem",0.46,NA,NA,0,NA,NA,NA,NA,"white","PA","['PA']","Philadelphia",NA,"white",0
4570,"default","the uprising at the Capitol was domestic terrorism","M","block1","M-N-John.png","critical","list1","list1_S","Glenn didn't suggest that","John","liberal",1,"suggest",2156,14,"N","capitol_uprising","S",0.29,30,43,1,"CORRECT",0.61,"block2","age_question",0.46,0.38,0.15,0.48,"Glenn","Sandra","CORRECT",0.57,73494,20,0.6,"block3",0.16,11243,46,NA,11,"default","Evaluation of political and social belief when compared with audio clip/sample of a particular person speaking (about a person or political issue).","Yes",30,"Yes","It was difficult to pry true intention and feeling from one line, but I did my best and very much enjoyed this task and challenging myself to think about it.",3,"Male",1,"N/A",NA,"Dem",0.46,NA,NA,0,NA,NA,NA,NA,"white","PA","['PA']","Philadelphia",NA,"white",0
4570,"default","medicaid is overfunded","F","block1","F-S-Sarah.png","critical","list1","list1_S","Allison didn't hear that","Sarah","conservative",0.44,"hear",2117,15,"S","medicaid","S",0.78,30,42,1,"CORRECT",0.29,"block2","age_question",0.34,0.5,0.72,0.44,"Allison","Bill","CORRECT",0.68,16000,29,0.21,"block3",0,14609,37,NA,12,"default","Evaluation of political and social belief when compared with audio clip/sample of a particular person speaking (about a person or political issue).","Yes",30,"Yes","It was difficult to pry true intention and feeling from one line, but I did my best and very much enjoyed this task and challenging myself to think about it.",3,"Male",1,"N/A",NA,"Dem",0.46,NA,NA,0,NA,NA,NA,NA,"white","PA","['PA']","Philadelphia",NA,"white",0
4570,"default","it is too difficult to buy guns","M","block1","M-N-Daniel.png","critical","list1","list1_S","Owen didn't suggest that","Daniel","conservative",0.16,"suggest",3346,16,"N","gun_laws","S",0.11,34,42,0,"INCORRECT",0.25,"block2","name_question",0.41,0.27,0.5,0.48,"Owen","Lucy","INCORRECT",0.53,20794,30,0.34,"block3",0.12,11008,48,NA,13,"default","Evaluation of political and social belief when compared with audio clip/sample of a particular person speaking (about a person or political issue).","Yes",30,"Yes","It was difficult to pry true intention and feeling from one line, but I did my best and very much enjoyed this task and challenging myself to think about it.",3,"Male",1,"N/A",NA,"Dem",0.46,NA,NA,0,NA,NA,NA,NA,"white","PA","['PA']","Philadelphia",NA,"white",0
4570,"default","the military is overfunded","F","block1","F-S-Donna.png","critical","list1","list1_S","Emma didn't confess that","Donna","liberal",0.66,"confess",2063,17,"S","military","S",0.86,36,20,1,"CORRECT",0.43,"block2","name_question",0.39,0.18,0.65,0.36,"Emma","Elena","CORRECT",0.71,42764,21,0.17,"block3",0.63,11091,53,NA,14,"default","Evaluation of political and social belief when compared with audio clip/sample of a particular person speaking (about a person or political issue).","Yes",30,"Yes","It was difficult to pry true intention and feeling from one line, but I did my best and very much enjoyed this task and challenging myself to think about it.",3,"Male",1,"N/A",NA,"Dem",0.46,NA,NA,0,NA,NA,NA,NA,"white","PA","['PA']","Philadelphia",NA,"white",0
4570,"default","the minimum wage is too high","F","block1","F-N-Elizabeth.png","critical","list1","list1_S","Ken didn't acknowledge","Elizabeth","conservative",0.24,"acknowledge",2166,18,"N","minimum_wage","S",0.06,27,24,1,"CORRECT",0.3,"block2","age_question",0.72,0.69,0.73,0.53,"Ken","Rhonda","CORRECT",0.27,64573,24,0.09,"block3",0.67,15995,38,NA,15,"default","Evaluation of political and social belief when compared with audio clip/sample of a particular person speaking (about a person or political issue).","Yes",30,"Yes","It was difficult to pry true intention and feeling from one line, but I did my best and very much enjoyed this task and challenging myself to think about it.",3,"Male",1,"N/A",NA,"Dem",0.46,NA,NA,0,NA,NA,NA,NA,"white","PA","['PA']","Philadelphia",NA,"white",0
4444,"default","Trump's policies damaged the American economy","F","block1","F-N-Lisa.png","critical","list1","list1_S","Tony doesn't think that","Lisa","liberal",1,"think",8419,4,"N","Trump_economy","S",0,34,20,0,"INCORRECT",0.59,"block2","age_question",0.5,0.49,0.72,0.48,"Tony","Marie","INCORRECT",0.5,31021,21,0.51,"block3",0.5,13098,42,NA,1,"default","Perceptions of politics of southern people.","No",30,"Yes",NA,3,"Male",4,NA,NA,"Dem",0,NA,NA,0,NA,NA,NA,NA,"white","WA","['WA']",NA,NA,"white",0
4444,"default","the 2020 election was rigged","M","block1","M-S-Ryan.png","critical","list1","list1_S","Jen didn't admit that","Ryan","conservative",0,"admit",3393,5,"S","2020_election","S",0.87,25,24,0.71,"CORRECT",0.5,"block2","name_question",0.47,0.5,0.16,0.49,"Jen","Sandra","CORRECT",0.47,27702,33,0.44,"block3",0.73,25786,35,NA,2,"default","Perceptions of politics of southern people.","No",30,"Yes",NA,3,"Male",4,NA,NA,"Dem",0,NA,NA,0,NA,NA,NA,NA,"white","WA","['WA']",NA,NA,"white",0
4444,"default","the military is overfunded","F","block1","F-S-Donna.png","critical","list1","list1_S","Emma didn't admit that","Donna","liberal",1,"admit",2732,6,"S","military","S",0.89,36,42,1,"CORRECT",0.5,"block2","age_question",0.49,0.49,0.91,0.49,"Emma","Fran","CORRECT",0.49,22512,28,0.46,"block3",0.85,17751,38,NA,3,"default","Perceptions of politics of southern people.","No",30,"Yes",NA,3,"Male",4,NA,NA,"Dem",0,NA,NA,0,NA,NA,NA,NA,"white","WA","['WA']",NA,NA,"white",0
4444,"default","the minimum wage is too high","F","block1","F-N-Elizabeth.png","critical","list1","list1_S","Ken doesn't think that","Elizabeth","conservative",0,"think",2346,7,"N","minimum_wage","S",0.5,27,24,0,"INCORRECT",0.49,"block2","name_question",0.49,0.49,0.87,0.48,"Ken","Lucy","INCORRECT",0.5,20215,29,0.47,"block3",0.5,14616,40,NA,4,"default","Perceptions of politics of southern people.","No",30,"Yes",NA,3,"Male",4,NA,NA,"Dem",0,NA,NA,0,NA,NA,NA,NA,"white","WA","['WA']",NA,NA,"white",0
4444,"default","it is too difficult to buy guns","M","block1","M-N-Daniel.png","critical","list1","list1_S","Owen isn't right that","Daniel","conservative",0,"be_right",2485,8,"N","gun_laws","S",0.16,34,42,1,"CORRECT",0.48,"block2","age_question",0.52,0.49,0.15,0.49,"Owen","Shari","CORRECT",0.52,21473,31,0.49,"block3",0.72,106884,45,NA,5,"default","Perceptions of politics of southern people.","No",30,"Yes",NA,3,"Male",4,NA,NA,"Dem",0,NA,NA,0,NA,NA,NA,NA,"white","WA","['WA']",NA,NA,"white",0
4444,"default","the uprising at the Capitol was domestic terrorism","M","block1","M-N-John.png","critical","list1","list1_S","Glenn isn't right that","John","liberal",1,"be_right",3690,9,"N","capitol_uprising","S",0.1,30,19,1,"CORRECT",0.5,"block2","name_question",0.51,0.5,0.12,0.49,"Glenn","Elena","CORRECT",0.51,22381,24,0.5,"block3",0.24,20002,48,NA,6,"default","Perceptions of politics of southern people.","No",30,"Yes",NA,3,"Male",4,NA,NA,"Dem",0,NA,NA,0,NA,NA,NA,NA,"white","WA","['WA']",NA,NA,"white",0
4444,"default","mask mandates are necessary","F","block1","F-S-Amy.png","critical","list1","list1_S","Wendy didn't hear that","Amy","liberal",1,"hear",2297,10,"S","masks","S",0.92,26,21,0,"INCORRECT",0.48,"block2","age_question",0.48,0.49,0.93,0.48,"Wendy","Judith","INCORRECT",0.49,13487,32,0.44,"block3",0.81,12664,49,NA,7,"default","Perceptions of politics of southern people.","No",30,"Yes",NA,3,"Male",4,NA,NA,"Dem",0,NA,NA,0,NA,NA,NA,NA,"white","WA","['WA']",NA,NA,"white",0
4444,"default","Trump handled the pandemic badly","M","block1","M-N-Tim.png","critical","list1","list1_S","Danny doesn't see that","Tim","liberal",1,"see",2694,11,"N","Trump_pandemic","S",0,26,18,0,"INCORRECT",0.49,"block2","name_question",0.48,0.5,0.12,0.5,"Danny","Sally","INCORRECT",0.47,26314,22,0.48,"block3",0.9,14070,37,NA,8,"default","Perceptions of politics of southern people.","No",30,"Yes",NA,3,"Male",4,NA,NA,"Dem",0,NA,NA,0,NA,NA,NA,NA,"white","WA","['WA']",NA,NA,"white",0
4444,"default","closing businesses during COVID was necessary","F","block1","F-S-Lily.png","MC","list1","list1_S",NA,"Lily","liberal",1,NA,4217,12,"S","lockdown","S",0.13,22,43,1,"CORRECT",0.49,"block2","name_question",0.5,0.49,0.88,0.5,"the lockdown","capitol punishment","CORRECT",0.5,17480,26,0.51,"block3",0.9,9508,54,NA,9,"default","Perceptions of politics of southern people.","No",30,"Yes",NA,3,"Male",4,NA,NA,"Dem",0,NA,NA,0,NA,NA,NA,NA,"white","WA","['WA']",NA,NA,"white",0
4444,"default","COVID is a dangerous virus","M","block1","M-S-Anthony.png","critical","list1","list1_S","Mary isn't annoyed that","Anthony","liberal",1,"be_annoyed",2361,13,"S","covid","S",0.75,29,40,0,"INCORRECT",0.47,"block2","name_question",0.49,0.48,0.17,0.48,"Mary","Rhonda","INCORRECT",0.49,30500,25,0.49,"block3",0.64,26838,44,NA,10,"default","Perceptions of politics of southern people.","No",30,"Yes",NA,3,"Male",4,NA,NA,"Dem",0,NA,NA,0,NA,NA,NA,NA,"white","WA","['WA']",NA,NA,"white",0
4444,"default","the capital of the US is in Ohio",NA,"block1","NA.png","O","list1","list1_S",NA,NA,NA,0,NA,3421,14,NA,"capital","S",NA,NA,NA,NA,NA,NA,NA,NA,NA,NA,NA,NA,NA,NA,NA,NA,NA,NA,NA,NA,NA,NA,NA,NA,11,"default","Perceptions of politics of southern people.","No",30,"Yes",NA,3,"Male",4,NA,NA,"Dem",0,NA,NA,0,NA,NA,NA,NA,"white","WA","['WA']",NA,NA,"white",0
4444,"default","U.S. presidential elections are held in November",NA,"block1","NA.png","O","list1","list1_S",NA,NA,NA,1,NA,26502,15,NA,"elections","S",NA,NA,NA,NA,NA,NA,NA,NA,NA,NA,NA,NA,NA,NA,NA,NA,NA,NA,NA,NA,NA,NA,NA,NA,12,"default","Perceptions of politics of southern people.","No",30,"Yes",NA,3,"Male",4,NA,NA,"Dem",0,NA,NA,0,NA,NA,NA,NA,"white","WA","['WA']",NA,NA,"white",0
4444,"default","immigrants steal jobs from Americans","F","block1","F-N-Helen.png","critical","list1","list1_S","Ben doesn't see that","Helen","conservative",0,"see",2144,16,"N","immigrants","S",0.09,29,21,0,"INCORRECT",0.5,"block2","age_question",0.49,0.5,0.81,0.5,"Ben","Bill","INCORRECT",0.5,25166,23,0.49,"block3",0.83,13454,39,NA,13,"default","Perceptions of politics of southern people.","No",30,"Yes",NA,3,"Male",4,NA,NA,"Dem",0,NA,NA,0,NA,NA,NA,NA,"white","WA","['WA']",NA,NA,"white",0
4444,"default","it is too easy to get an abortion","M","block1","M-S-Joseph.png","critical","list1","list1_S","Grace isn't annoyed that","Joseph","conservative",0,"be_annoyed",2701,17,"S","abortion","S",0.89,27,37,1,"CORRECT",0.52,"block2","age_question",0.49,0.52,0.18,0.51,"Grace","Sam","CORRECT",0.48,23024,30,0.48,"block3",0.73,18324,46,NA,14,"default","Perceptions of politics of southern people.","No",30,"Yes",NA,3,"Male",4,NA,NA,"Dem",0,NA,NA,0,NA,NA,NA,NA,"white","WA","['WA']",NA,NA,"white",0
4444,"default","medicaid is overfunded","F","block1","F-S-Sarah.png","critical","list1","list1_S","Allison didn't hear that","Sarah","conservative",0,"hear",2426,18,"S","medicaid","S",1,30,20,0,"INCORRECT",0.5,"block2","name_question",0.5,0.5,0.8,0.5,"Allison","Charlotte","INCORRECT",0.51,37578,20,0.48,"block3",0.8,20285,50,NA,15,"default","Perceptions of politics of southern people.","No",30,"Yes",NA,3,"Male",4,NA,NA,"Dem",0,NA,NA,0,NA,NA,NA,NA,"white","WA","['WA']",NA,NA,"white",0
4382,"default","mask mandates are necessary","F","block1","F-S-Amy.png","critical","list1","list1_S","Wendy doesn't think that","Amy","liberal",0.64,"think",19167,4,"S","masks","S",0.96,26,40,0.98,"CORRECT",0.4,"block2","age_question",0.52,0.55,0.59,0.48,"Wendy","Isabelle","CORRECT",0.51,44573,24,0.62,"block3",0.33,46305,35,NA,1,"default","Insinuations while listening to speech, assumptions based on accent, gender, assertion and ethnicity","No",43,"Yes",NA,3,"Female",2,NA,NA,"Rep",0.68,NA,NA,0,NA,NA,NA,NA,"white","MI","['MI']",NA,NA,"white",0
4382,"default","the uprising at the Capitol was domestic terrorism","M","block1","M-N-John.png","critical","list1","list1_S","Glenn didn't say that","John","liberal",0.75,"say",22173,5,"N","capitol_uprising","S",0.43,30,20,0.98,"CORRECT",0.47,"block2","age_question",0.51,0.52,0.44,0.47,"Glenn","Rhonda","CORRECT",0.54,68297,22,0.43,"block3",0.42,17879,48,NA,2,"default","Insinuations while listening to speech, assumptions based on accent, gender, assertion and ethnicity","No",43,"Yes",NA,3,"Female",2,NA,NA,"Rep",0.68,NA,NA,0,NA,NA,NA,NA,"white","MI","['MI']",NA,NA,"white",0
4382,"default","Trump handled the pandemic badly","M","block1","M-N-Tim.png","critical","list1","list1_S","Danny doesn't know that","Tim","liberal",0.56,"know",14119,6,"N","Trump_pandemic","S",0.35,26,37,0.03,"INCORRECT",0.26,"block2","age_question",0.49,0.49,0.26,0.42,"Danny","Shari","INCORRECT",0.54,46741,29,0.61,"block3",0.8,22741,37,NA,3,"default","Insinuations while listening to speech, assumptions based on accent, gender, assertion and ethnicity","No",43,"Yes",NA,3,"Female",2,NA,NA,"Rep",0.68,NA,NA,0,NA,NA,NA,NA,"white","MI","['MI']",NA,NA,"white",0
4382,"default","closing businesses during COVID was necessary","F","block1","F-S-Lily.png","MC","list1","list1_S",NA,"Lily","liberal",0.45,NA,9943,7,"S","lockdown","S",0.43,22,21,0.97,"CORRECT",0.45,"block2","name_question",0.47,0.47,0.46,0.47,"the lockdown","vaccine mandates","CORRECT",0.47,29014,32,0.36,"block3",0.88,11791,51,NA,4,"default","Insinuations while listening to speech, assumptions based on accent, gender, assertion and ethnicity","No",43,"Yes",NA,3,"Female",2,NA,NA,"Rep",0.68,NA,NA,0,NA,NA,NA,NA,"white","MI","['MI']",NA,NA,"white",0
4382,"default","U.S. presidential elections are held in November",NA,"block1","NA.png","O","list1","list1_S",NA,NA,NA,0.97,NA,8063,8,NA,"elections","S",NA,NA,NA,NA,NA,NA,NA,NA,NA,NA,NA,NA,NA,NA,NA,NA,NA,NA,NA,NA,NA,NA,NA,NA,5,"default","Insinuations while listening to speech, assumptions based on accent, gender, assertion and ethnicity","No",43,"Yes",NA,3,"Female",2,NA,NA,"Rep",0.68,NA,NA,0,NA,NA,NA,NA,"white","MI","['MI']",NA,NA,"white",0
4382,"default","Trump's policies damaged the American economy","F","block1","F-N-Lisa.png","critical","list1","list1_S","Tony didn't suggest that","Lisa","liberal",0.03,"suggest",18823,9,"N","Trump_economy","S",0.4,34,18,0.98,"CORRECT",0.48,"block2","age_question",0.64,0.33,0.53,0.4,"Tony","Charlotte","CORRECT",0.49,83611,21,0.57,"block3",0.32,28303,39,NA,6,"default","Insinuations while listening to speech, assumptions based on accent, gender, assertion and ethnicity","No",43,"Yes",NA,3,"Female",2,NA,NA,"Rep",0.68,NA,NA,0,NA,NA,NA,NA,"white","MI","['MI']",NA,NA,"white",0
4382,"default","the 2020 election was rigged","M","block1","M-S-Ryan.png","critical","list1","list1_S","Jen isn't right that","Ryan","conservative",0.3,"be_right",6720,10,"S","2020_election","S",0.96,25,42,0.02,"INCORRECT",0.58,"block2","age_question",0.4,0.43,0.26,0.51,"Jen","Lucy","INCORRECT",0.62,32246,26,0.6,"block3",0.51,27222,46,NA,7,"default","Insinuations while listening to speech, assumptions based on accent, gender, assertion and ethnicity","No",43,"Yes",NA,3,"Female",2,NA,NA,"Rep",0.68,NA,NA,0,NA,NA,NA,NA,"white","MI","['MI']",NA,NA,"white",0
4382,"default","the minimum wage is too high","F","block1","F-N-Elizabeth.png","critical","list1","list1_S","Ken didn't suggest that","Elizabeth","conservative",0.49,"suggest",13800,11,"N","minimum_wage","S",0.22,27,18,0.03,"INCORRECT",0.48,"block2","name_question",0.48,0.53,0.51,0.49,"Ken","Sam","INCORRECT",0.47,31413,28,0.39,"block3",0.37,15680,45,NA,8,"default","Insinuations while listening to speech, assumptions based on accent, gender, assertion and ethnicity","No",43,"Yes",NA,3,"Female",2,NA,NA,"Rep",0.68,NA,NA,0,NA,NA,NA,NA,"white","MI","['MI']",NA,NA,"white",0
4382,"default","COVID is a dangerous virus","M","block1","M-S-Anthony.png","critical","list1","list1_S","Mary isn't annoyed that","Anthony","liberal",0.64,"be_annoyed",7048,12,"S","covid","S",0.95,29,37,0.02,"INCORRECT",0.6,"block2","name_question",0.51,0.43,0.39,0.52,"Mary","Sally","INCORRECT",0.58,708841,33,0.43,"block3",0.65,14933,50,NA,9,"default","Insinuations while listening to speech, assumptions based on accent, gender, assertion and ethnicity","No",43,"Yes",NA,3,"Female",2,NA,NA,"Rep",0.68,NA,NA,0,NA,NA,NA,NA,"white","MI","['MI']",NA,NA,"white",0
4382,"default","the military is overfunded","F","block1","F-S-Donna.png","critical","list1","list1_S","Emma isn't right that","Donna","liberal",0.03,"be_right",16590,13,"S","military","S",0.97,36,24,0.03,"INCORRECT",0.4,"block2","age_question",0.48,0.54,0.53,0.48,"Emma","Bill","INCORRECT",0.48,38030,31,0.46,"block3",0.08,21542,53,NA,10,"default","Insinuations while listening to speech, assumptions based on accent, gender, assertion and ethnicity","No",43,"Yes",NA,3,"Female",2,NA,NA,"Rep",0.68,NA,NA,0,NA,NA,NA,NA,"white","MI","['MI']",NA,NA,"white",0
4382,"default","it is too difficult to buy guns","M","block1","M-N-Daniel.png","critical","list1","list1_S","Owen didn't say that","Daniel","conservative",0.04,"say",10591,14,"N","gun_laws","S",0.01,34,42,0.98,"CORRECT",0.49,"block2","age_question",0.54,0.56,0.5,0.57,"Owen","Libby","CORRECT",0.54,91011,20,0.54,"block3",0.22,31997,41,NA,11,"default","Insinuations while listening to speech, assumptions based on accent, gender, assertion and ethnicity","No",43,"Yes",NA,3,"Female",2,NA,NA,"Rep",0.68,NA,NA,0,NA,NA,NA,NA,"white","MI","['MI']",NA,NA,"white",0
4382,"default","medicaid is overfunded","F","block1","F-S-Sarah.png","critical","list1","list1_S","Allison doesn't think that","Sarah","conservative",0.5,"think",5679,15,"S","medicaid","S",0.94,30,20,0.97,"CORRECT",0.43,"block2","name_question",0.53,0.61,0.55,0.5,"Allison","Fran","CORRECT",0.53,26583,27,0.52,"block3",0.71,17733,54,NA,12,"default","Insinuations while listening to speech, assumptions based on accent, gender, assertion and ethnicity","No",43,"Yes",NA,3,"Female",2,NA,NA,"Rep",0.68,NA,NA,0,NA,NA,NA,NA,"white","MI","['MI']",NA,NA,"white",0
4382,"default","the capital of the US is in Ohio",NA,"block1","NA.png","O","list1","list1_S",NA,NA,NA,0.02,NA,6127,16,NA,"capital","S",NA,NA,NA,NA,NA,NA,NA,NA,NA,NA,NA,NA,NA,NA,NA,NA,NA,NA,NA,NA,NA,NA,NA,NA,13,"default","Insinuations while listening to speech, assumptions based on accent, gender, assertion and ethnicity","No",43,"Yes",NA,3,"Female",2,NA,NA,"Rep",0.68,NA,NA,0,NA,NA,NA,NA,"white","MI","['MI']",NA,NA,"white",0
4382,"default","immigrants steal jobs from Americans","F","block1","F-N-Helen.png","critical","list1","list1_S","Ben doesn't know that","Helen","conservative",0.57,"know",12696,17,"N","immigrants","S",0.5,29,24,0.99,"CORRECT",0.33,"block2","name_question",0.48,0.36,0.56,0.48,"Ben","Elena","CORRECT",0.48,76975,23,0.49,"block3",0.85,11974,49,NA,14,"default","Insinuations while listening to speech, assumptions based on accent, gender, assertion and ethnicity","No",43,"Yes",NA,3,"Female",2,NA,NA,"Rep",0.68,NA,NA,0,NA,NA,NA,NA,"white","MI","['MI']",NA,NA,"white",0
4382,"default","it is too easy to get an abortion","M","block1","M-S-Joseph.png","critical","list1","list1_S","Grace isn't annoyed that","Joseph","conservative",0.99,"be_annoyed",11415,18,"S","abortion","S",0.75,27,43,0.03,"INCORRECT",0.37,"block2","name_question",0.51,0.44,0.5,0.47,"Grace","Marie","INCORRECT",0.5,32831,30,0.5,"block3",0.8,52141,36,NA,15,"default","Insinuations while listening to speech, assumptions based on accent, gender, assertion and ethnicity","No",43,"Yes",NA,3,"Female",2,NA,NA,"Rep",0.68,NA,NA,0,NA,NA,NA,NA,"white","MI","['MI']",NA,NA,"white",0
4566,"default","the capital of the US is in Ohio",NA,"block1","NA.png","O","list2","list2_NS",NA,NA,NA,0,NA,4203,4,NA,"capital","NS",NA,NA,NA,NA,NA,NA,NA,NA,NA,NA,NA,NA,NA,NA,NA,NA,NA,NA,NA,NA,NA,NA,NA,NA,1,"default","I think this experiment was trying to evaluate people's first impressions about other people and their political views, confidence in their beliefs, intellect, personality traits, and so on, based on accent, appearance, number of friends, the viewpoints they espouse, and the phrasing of their viewpoints, or something similar.","Yes",27,"Yes","I made a conscious effort to not automatically stereotype Southerners as being innately stupid or ignorant, even if I don't agree with extreme conservative views. I also believe that first impressions of people should be significantly subject to revision after further interactions, and it often takes time before really getting to know someone. I try not to form conclusive opinions about people with limited context.",2,"Male",7,"Mandarin","I was a liberal up until mid-2016 when I became completely disillusioned with politics. I've always been fairly anti-establishment and at this point, I believe that it's highly likely that anybody who reaches a high level of power within our political systems has taken on at least a few sociopathic traits and behaviors, because our systems unfortunately tend to reward self-interested actions. I have very little faith in politics at this point and I just see it as a somewhat necessary evil. I've resigned myself to let other people fight it out, but I still try and live in a way that supports positive changes in society in terms of interpersonal empathy.","Other",0.46,"asian",NA,0,NA,NA,NA,NA,NA,"MA","['CA', 'MA', 'NV', 'NY', 'RI']","I'm not sure. I have a sort of distinctive and raspy voice that people often comment on. People tend to assume I'm from California and sometimes joke about my accent sounding sort of like a surfer or a valley boy. I actually only spent 3 years in California in my early 20's, and mostly grew up in the Metro Boston area, but I don't have a Boston accent. Some people may assume that I have a sort of SoCal accent because I have an 'alternative' aesthetic (long hair, piercings, tattoos) and I spent a lot of time immersed in SoCal punk-influenced culture growing up, despite not growing up there. I guess my accent is closest to that, but one time, I've also heard someone strangely say that my accent sounded slightly Irish (never heard that anywhere else), maybe because I grew up around a lot of Irish people. I also once heard someone say that I had a bit of an Australian accent, which was very strange but funny to me.",NA,"asian",0
4566,"default","the military is underfunded","F","block1","F-N-Elizabeth.png","critical","list2","list2_NS","Emma doesn't see that","Elizabeth","conservative",0,"see",2647,5,"N","military","NS",0.63,27,37,0,"INCORRECT",0.51,"block2","age_question",0.51,0.55,0.71,0.52,"Emma","Elena","INCORRECT",0.52,30206,30,0.51,"block3",1,11151,55,NA,2,"default","I think this experiment was trying to evaluate people's first impressions about other people and their political views, confidence in their beliefs, intellect, personality traits, and so on, based on accent, appearance, number of friends, the viewpoints they espouse, and the phrasing of their viewpoints, or something similar.","Yes",27,"Yes","I made a conscious effort to not automatically stereotype Southerners as being innately stupid or ignorant, even if I don't agree with extreme conservative views. I also believe that first impressions of people should be significantly subject to revision after further interactions, and it often takes time before really getting to know someone. I try not to form conclusive opinions about people with limited context.",2,"Male",7,"Mandarin","I was a liberal up until mid-2016 when I became completely disillusioned with politics. I've always been fairly anti-establishment and at this point, I believe that it's highly likely that anybody who reaches a high level of power within our political systems has taken on at least a few sociopathic traits and behaviors, because our systems unfortunately tend to reward self-interested actions. I have very little faith in politics at this point and I just see it as a somewhat necessary evil. I've resigned myself to let other people fight it out, but I still try and live in a way that supports positive changes in society in terms of interpersonal empathy.","Other",0.46,"asian",NA,0,NA,NA,NA,NA,NA,"MA","['CA', 'MA', 'NV', 'NY', 'RI']","I'm not sure. I have a sort of distinctive and raspy voice that people often comment on. People tend to assume I'm from California and sometimes joke about my accent sounding sort of like a surfer or a valley boy. I actually only spent 3 years in California in my early 20's, and mostly grew up in the Metro Boston area, but I don't have a Boston accent. Some people may assume that I have a sort of SoCal accent because I have an 'alternative' aesthetic (long hair, piercings, tattoos) and I spent a lot of time immersed in SoCal punk-influenced culture growing up, despite not growing up there. I guess my accent is closest to that, but one time, I've also heard someone strangely say that my accent sounded slightly Irish (never heard that anywhere else), maybe because I grew up around a lot of Irish people. I also once heard someone say that I had a bit of an Australian accent, which was very strange but funny to me.",NA,"asian",0
4566,"default","it is too hard to get an abortion","M","block1","M-N-Daniel.png","critical","list2","list2_NS","Grace didn't confess that","Daniel","liberal",0.52,"confess",7071,6,"N","abortion","NS",0.47,34,41,0,"INCORRECT",0.58,"block2","age_question",0.51,0.53,0.16,0.57,"Grace","Marie","INCORRECT",0.51,25215,25,0.51,"block3",0.86,16806,52,NA,3,"default","I think this experiment was trying to evaluate people's first impressions about other people and their political views, confidence in their beliefs, intellect, personality traits, and so on, based on accent, appearance, number of friends, the viewpoints they espouse, and the phrasing of their viewpoints, or something similar.","Yes",27,"Yes","I made a conscious effort to not automatically stereotype Southerners as being innately stupid or ignorant, even if I don't agree with extreme conservative views. I also believe that first impressions of people should be significantly subject to revision after further interactions, and it often takes time before really getting to know someone. I try not to form conclusive opinions about people with limited context.",2,"Male",7,"Mandarin","I was a liberal up until mid-2016 when I became completely disillusioned with politics. I've always been fairly anti-establishment and at this point, I believe that it's highly likely that anybody who reaches a high level of power within our political systems has taken on at least a few sociopathic traits and behaviors, because our systems unfortunately tend to reward self-interested actions. I have very little faith in politics at this point and I just see it as a somewhat necessary evil. I've resigned myself to let other people fight it out, but I still try and live in a way that supports positive changes in society in terms of interpersonal empathy.","Other",0.46,"asian",NA,0,NA,NA,NA,NA,NA,"MA","['CA', 'MA', 'NV', 'NY', 'RI']","I'm not sure. I have a sort of distinctive and raspy voice that people often comment on. People tend to assume I'm from California and sometimes joke about my accent sounding sort of like a surfer or a valley boy. I actually only spent 3 years in California in my early 20's, and mostly grew up in the Metro Boston area, but I don't have a Boston accent. Some people may assume that I have a sort of SoCal accent because I have an 'alternative' aesthetic (long hair, piercings, tattoos) and I spent a lot of time immersed in SoCal punk-influenced culture growing up, despite not growing up there. I guess my accent is closest to that, but one time, I've also heard someone strangely say that my accent sounded slightly Irish (never heard that anywhere else), maybe because I grew up around a lot of Irish people. I also once heard someone say that I had a bit of an Australian accent, which was very strange but funny to me.",NA,"asian",0
4566,"default","Trump's policies improved the American economy","F","block1","F-S-Amy.png","critical","list2","list2_NS","Tony doesn't know that","Amy","conservative",0.2,"know",3655,7,"S","Trump_economy","NS",0.96,26,19,0,"INCORRECT",0.57,"block2","name_question",0.5,0.58,0.81,0.56,"Tony","Rhonda","INCORRECT",0.59,24607,29,0.55,"block3",1,11358,49,NA,4,"default","I think this experiment was trying to evaluate people's first impressions about other people and their political views, confidence in their beliefs, intellect, personality traits, and so on, based on accent, appearance, number of friends, the viewpoints they espouse, and the phrasing of their viewpoints, or something similar.","Yes",27,"Yes","I made a conscious effort to not automatically stereotype Southerners as being innately stupid or ignorant, even if I don't agree with extreme conservative views. I also believe that first impressions of people should be significantly subject to revision after further interactions, and it often takes time before really getting to know someone. I try not to form conclusive opinions about people with limited context.",2,"Male",7,"Mandarin","I was a liberal up until mid-2016 when I became completely disillusioned with politics. I've always been fairly anti-establishment and at this point, I believe that it's highly likely that anybody who reaches a high level of power within our political systems has taken on at least a few sociopathic traits and behaviors, because our systems unfortunately tend to reward self-interested actions. I have very little faith in politics at this point and I just see it as a somewhat necessary evil. I've resigned myself to let other people fight it out, but I still try and live in a way that supports positive changes in society in terms of interpersonal empathy.","Other",0.46,"asian",NA,0,NA,NA,NA,NA,NA,"MA","['CA', 'MA', 'NV', 'NY', 'RI']","I'm not sure. I have a sort of distinctive and raspy voice that people often comment on. People tend to assume I'm from California and sometimes joke about my accent sounding sort of like a surfer or a valley boy. I actually only spent 3 years in California in my early 20's, and mostly grew up in the Metro Boston area, but I don't have a Boston accent. Some people may assume that I have a sort of SoCal accent because I have an 'alternative' aesthetic (long hair, piercings, tattoos) and I spent a lot of time immersed in SoCal punk-influenced culture growing up, despite not growing up there. I guess my accent is closest to that, but one time, I've also heard someone strangely say that my accent sounded slightly Irish (never heard that anywhere else), maybe because I grew up around a lot of Irish people. I also once heard someone say that I had a bit of an Australian accent, which was very strange but funny to me.",NA,"asian",0
4566,"default","medicaid is underfunded","F","block1","F-N-Helen.png","critical","list2","list2_NS","Allison didn't pretend that","Helen","liberal",0.49,"pretend",5215,8,"N","medicaid","NS",0.49,29,20,0,"INCORRECT",0.54,"block2","name_question",0.5,0.6,0.81,0.56,"Allison","Shari","INCORRECT",0.5,27670,21,0.5,"block3",0.09,16518,54,NA,5,"default","I think this experiment was trying to evaluate people's first impressions about other people and their political views, confidence in their beliefs, intellect, personality traits, and so on, based on accent, appearance, number of friends, the viewpoints they espouse, and the phrasing of their viewpoints, or something similar.","Yes",27,"Yes","I made a conscious effort to not automatically stereotype Southerners as being innately stupid or ignorant, even if I don't agree with extreme conservative views. I also believe that first impressions of people should be significantly subject to revision after further interactions, and it often takes time before really getting to know someone. I try not to form conclusive opinions about people with limited context.",2,"Male",7,"Mandarin","I was a liberal up until mid-2016 when I became completely disillusioned with politics. I've always been fairly anti-establishment and at this point, I believe that it's highly likely that anybody who reaches a high level of power within our political systems has taken on at least a few sociopathic traits and behaviors, because our systems unfortunately tend to reward self-interested actions. I have very little faith in politics at this point and I just see it as a somewhat necessary evil. I've resigned myself to let other people fight it out, but I still try and live in a way that supports positive changes in society in terms of interpersonal empathy.","Other",0.46,"asian",NA,0,NA,NA,NA,NA,NA,"MA","['CA', 'MA', 'NV', 'NY', 'RI']","I'm not sure. I have a sort of distinctive and raspy voice that people often comment on. People tend to assume I'm from California and sometimes joke about my accent sounding sort of like a surfer or a valley boy. I actually only spent 3 years in California in my early 20's, and mostly grew up in the Metro Boston area, but I don't have a Boston accent. Some people may assume that I have a sort of SoCal accent because I have an 'alternative' aesthetic (long hair, piercings, tattoos) and I spent a lot of time immersed in SoCal punk-influenced culture growing up, despite not growing up there. I guess my accent is closest to that, but one time, I've also heard someone strangely say that my accent sounded slightly Irish (never heard that anywhere else), maybe because I grew up around a lot of Irish people. I also once heard someone say that I had a bit of an Australian accent, which was very strange but funny to me.",NA,"asian",0
4566,"default","immigrants support the economy","F","block1","F-S-Sarah.png","critical","list2","list2_NS","Ben didn't hear that","Sarah","liberal",0.75,"hear",6192,9,"S","immigrants","NS",1,30,43,1,"CORRECT",0.51,"block2","age_question",0.5,0.51,0.64,0.51,"Ben","Fran","CORRECT",0.68,21895,23,0.47,"block3",0.94,11415,50,NA,6,"default","I think this experiment was trying to evaluate people's first impressions about other people and their political views, confidence in their beliefs, intellect, personality traits, and so on, based on accent, appearance, number of friends, the viewpoints they espouse, and the phrasing of their viewpoints, or something similar.","Yes",27,"Yes","I made a conscious effort to not automatically stereotype Southerners as being innately stupid or ignorant, even if I don't agree with extreme conservative views. I also believe that first impressions of people should be significantly subject to revision after further interactions, and it often takes time before really getting to know someone. I try not to form conclusive opinions about people with limited context.",2,"Male",7,"Mandarin","I was a liberal up until mid-2016 when I became completely disillusioned with politics. I've always been fairly anti-establishment and at this point, I believe that it's highly likely that anybody who reaches a high level of power within our political systems has taken on at least a few sociopathic traits and behaviors, because our systems unfortunately tend to reward self-interested actions. I have very little faith in politics at this point and I just see it as a somewhat necessary evil. I've resigned myself to let other people fight it out, but I still try and live in a way that supports positive changes in society in terms of interpersonal empathy.","Other",0.46,"asian",NA,0,NA,NA,NA,NA,NA,"MA","['CA', 'MA', 'NV', 'NY', 'RI']","I'm not sure. I have a sort of distinctive and raspy voice that people often comment on. People tend to assume I'm from California and sometimes joke about my accent sounding sort of like a surfer or a valley boy. I actually only spent 3 years in California in my early 20's, and mostly grew up in the Metro Boston area, but I don't have a Boston accent. Some people may assume that I have a sort of SoCal accent because I have an 'alternative' aesthetic (long hair, piercings, tattoos) and I spent a lot of time immersed in SoCal punk-influenced culture growing up, despite not growing up there. I guess my accent is closest to that, but one time, I've also heard someone strangely say that my accent sounded slightly Irish (never heard that anywhere else), maybe because I grew up around a lot of Irish people. I also once heard someone say that I had a bit of an Australian accent, which was very strange but funny to me.",NA,"asian",0
4566,"default","closing businesses during COVID was unnecessary","F","block1","F-N-Ashley.png","MC","list2","list2_NS",NA,"Ashley","conservative",0.73,NA,5727,10,"N","lockdown","NS",0.42,28,18,0,"INCORRECT",0.5,"block2","name_question",0.51,0.57,0.77,0.62,"the lockdown","vaccine mandates","INCORRECT",0.51,26895,33,0.51,"block3",0.78,12530,35,NA,7,"default","I think this experiment was trying to evaluate people's first impressions about other people and their political views, confidence in their beliefs, intellect, personality traits, and so on, based on accent, appearance, number of friends, the viewpoints they espouse, and the phrasing of their viewpoints, or something similar.","Yes",27,"Yes","I made a conscious effort to not automatically stereotype Southerners as being innately stupid or ignorant, even if I don't agree with extreme conservative views. I also believe that first impressions of people should be significantly subject to revision after further interactions, and it often takes time before really getting to know someone. I try not to form conclusive opinions about people with limited context.",2,"Male",7,"Mandarin","I was a liberal up until mid-2016 when I became completely disillusioned with politics. I've always been fairly anti-establishment and at this point, I believe that it's highly likely that anybody who reaches a high level of power within our political systems has taken on at least a few sociopathic traits and behaviors, because our systems unfortunately tend to reward self-interested actions. I have very little faith in politics at this point and I just see it as a somewhat necessary evil. I've resigned myself to let other people fight it out, but I still try and live in a way that supports positive changes in society in terms of interpersonal empathy.","Other",0.46,"asian",NA,0,NA,NA,NA,NA,NA,"MA","['CA', 'MA', 'NV', 'NY', 'RI']","I'm not sure. I have a sort of distinctive and raspy voice that people often comment on. People tend to assume I'm from California and sometimes joke about my accent sounding sort of like a surfer or a valley boy. I actually only spent 3 years in California in my early 20's, and mostly grew up in the Metro Boston area, but I don't have a Boston accent. Some people may assume that I have a sort of SoCal accent because I have an 'alternative' aesthetic (long hair, piercings, tattoos) and I spent a lot of time immersed in SoCal punk-influenced culture growing up, despite not growing up there. I guess my accent is closest to that, but one time, I've also heard someone strangely say that my accent sounded slightly Irish (never heard that anywhere else), maybe because I grew up around a lot of Irish people. I also once heard someone say that I had a bit of an Australian accent, which was very strange but funny to me.",NA,"asian",0
4566,"default","U.S. presidential elections are held in November",NA,"block1","NA.png","O","list2","list2_NS",NA,NA,NA,1,NA,2031,11,NA,"elections","NS",NA,NA,NA,NA,NA,NA,NA,NA,NA,NA,NA,NA,NA,NA,NA,NA,NA,NA,NA,NA,NA,NA,NA,NA,8,"default","I think this experiment was trying to evaluate people's first impressions about other people and their political views, confidence in their beliefs, intellect, personality traits, and so on, based on accent, appearance, number of friends, the viewpoints they espouse, and the phrasing of their viewpoints, or something similar.","Yes",27,"Yes","I made a conscious effort to not automatically stereotype Southerners as being innately stupid or ignorant, even if I don't agree with extreme conservative views. I also believe that first impressions of people should be significantly subject to revision after further interactions, and it often takes time before really getting to know someone. I try not to form conclusive opinions about people with limited context.",2,"Male",7,"Mandarin","I was a liberal up until mid-2016 when I became completely disillusioned with politics. I've always been fairly anti-establishment and at this point, I believe that it's highly likely that anybody who reaches a high level of power within our political systems has taken on at least a few sociopathic traits and behaviors, because our systems unfortunately tend to reward self-interested actions. I have very little faith in politics at this point and I just see it as a somewhat necessary evil. I've resigned myself to let other people fight it out, but I still try and live in a way that supports positive changes in society in terms of interpersonal empathy.","Other",0.46,"asian",NA,0,NA,NA,NA,NA,NA,"MA","['CA', 'MA', 'NV', 'NY', 'RI']","I'm not sure. I have a sort of distinctive and raspy voice that people often comment on. People tend to assume I'm from California and sometimes joke about my accent sounding sort of like a surfer or a valley boy. I actually only spent 3 years in California in my early 20's, and mostly grew up in the Metro Boston area, but I don't have a Boston accent. Some people may assume that I have a sort of SoCal accent because I have an 'alternative' aesthetic (long hair, piercings, tattoos) and I spent a lot of time immersed in SoCal punk-influenced culture growing up, despite not growing up there. I guess my accent is closest to that, but one time, I've also heard someone strangely say that my accent sounded slightly Irish (never heard that anywhere else), maybe because I grew up around a lot of Irish people. I also once heard someone say that I had a bit of an Australian accent, which was very strange but funny to me.",NA,"asian",0
4566,"default","it is too easy to buy guns","M","block1","M-S-Joseph.png","critical","list2","list2_NS","Owen isn't right that","Joseph","liberal",0.56,"be_right",4336,12,"S","gun_laws","NS",0.78,27,21,0,"INCORRECT",0.67,"block2","age_question",0.52,0.49,0.23,0.49,"Owen","Bill","INCORRECT",0.63,25064,31,0.36,"block3",0.05,14095,46,NA,9,"default","I think this experiment was trying to evaluate people's first impressions about other people and their political views, confidence in their beliefs, intellect, personality traits, and so on, based on accent, appearance, number of friends, the viewpoints they espouse, and the phrasing of their viewpoints, or something similar.","Yes",27,"Yes","I made a conscious effort to not automatically stereotype Southerners as being innately stupid or ignorant, even if I don't agree with extreme conservative views. I also believe that first impressions of people should be significantly subject to revision after further interactions, and it often takes time before really getting to know someone. I try not to form conclusive opinions about people with limited context.",2,"Male",7,"Mandarin","I was a liberal up until mid-2016 when I became completely disillusioned with politics. I've always been fairly anti-establishment and at this point, I believe that it's highly likely that anybody who reaches a high level of power within our political systems has taken on at least a few sociopathic traits and behaviors, because our systems unfortunately tend to reward self-interested actions. I have very little faith in politics at this point and I just see it as a somewhat necessary evil. I've resigned myself to let other people fight it out, but I still try and live in a way that supports positive changes in society in terms of interpersonal empathy.","Other",0.46,"asian",NA,0,NA,NA,NA,NA,NA,"MA","['CA', 'MA', 'NV', 'NY', 'RI']","I'm not sure. I have a sort of distinctive and raspy voice that people often comment on. People tend to assume I'm from California and sometimes joke about my accent sounding sort of like a surfer or a valley boy. I actually only spent 3 years in California in my early 20's, and mostly grew up in the Metro Boston area, but I don't have a Boston accent. Some people may assume that I have a sort of SoCal accent because I have an 'alternative' aesthetic (long hair, piercings, tattoos) and I spent a lot of time immersed in SoCal punk-influenced culture growing up, despite not growing up there. I guess my accent is closest to that, but one time, I've also heard someone strangely say that my accent sounded slightly Irish (never heard that anywhere else), maybe because I grew up around a lot of Irish people. I also once heard someone say that I had a bit of an Australian accent, which was very strange but funny to me.",NA,"asian",0
4566,"default","the 2020 election was legitimate","M","block1","M-N-Tim.png","critical","list2","list2_NS","Jen doesn't see that","Tim","liberal",0.69,"see",4111,13,"N","2020_election","NS",0.53,26,24,1,"CORRECT",0.57,"block2","age_question",0.51,0.57,0.36,0.57,"Jen","Lucy","CORRECT",0.51,28901,22,0.5,"block3",1,12655,39,NA,10,"default","I think this experiment was trying to evaluate people's first impressions about other people and their political views, confidence in their beliefs, intellect, personality traits, and so on, based on accent, appearance, number of friends, the viewpoints they espouse, and the phrasing of their viewpoints, or something similar.","Yes",27,"Yes","I made a conscious effort to not automatically stereotype Southerners as being innately stupid or ignorant, even if I don't agree with extreme conservative views. I also believe that first impressions of people should be significantly subject to revision after further interactions, and it often takes time before really getting to know someone. I try not to form conclusive opinions about people with limited context.",2,"Male",7,"Mandarin","I was a liberal up until mid-2016 when I became completely disillusioned with politics. I've always been fairly anti-establishment and at this point, I believe that it's highly likely that anybody who reaches a high level of power within our political systems has taken on at least a few sociopathic traits and behaviors, because our systems unfortunately tend to reward self-interested actions. I have very little faith in politics at this point and I just see it as a somewhat necessary evil. I've resigned myself to let other people fight it out, but I still try and live in a way that supports positive changes in society in terms of interpersonal empathy.","Other",0.46,"asian",NA,0,NA,NA,NA,NA,NA,"MA","['CA', 'MA', 'NV', 'NY', 'RI']","I'm not sure. I have a sort of distinctive and raspy voice that people often comment on. People tend to assume I'm from California and sometimes joke about my accent sounding sort of like a surfer or a valley boy. I actually only spent 3 years in California in my early 20's, and mostly grew up in the Metro Boston area, but I don't have a Boston accent. Some people may assume that I have a sort of SoCal accent because I have an 'alternative' aesthetic (long hair, piercings, tattoos) and I spent a lot of time immersed in SoCal punk-influenced culture growing up, despite not growing up there. I guess my accent is closest to that, but one time, I've also heard someone strangely say that my accent sounded slightly Irish (never heard that anywhere else), maybe because I grew up around a lot of Irish people. I also once heard someone say that I had a bit of an Australian accent, which was very strange but funny to me.",NA,"asian",0
4566,"default","mask mandates are unnecessary","F","block1","F-N-Lisa.png","critical","list2","list2_NS","Wendy didn't pretend that","Lisa","conservative",0.72,"pretend",4015,14,"N","masks","NS",0.51,34,40,0,"INCORRECT",0.49,"block2","name_question",0.51,0.63,0.9,0.63,"Wendy","Sandra","INCORRECT",0.51,30863,28,0.43,"block3",0.26,13903,37,NA,11,"default","I think this experiment was trying to evaluate people's first impressions about other people and their political views, confidence in their beliefs, intellect, personality traits, and so on, based on accent, appearance, number of friends, the viewpoints they espouse, and the phrasing of their viewpoints, or something similar.","Yes",27,"Yes","I made a conscious effort to not automatically stereotype Southerners as being innately stupid or ignorant, even if I don't agree with extreme conservative views. I also believe that first impressions of people should be significantly subject to revision after further interactions, and it often takes time before really getting to know someone. I try not to form conclusive opinions about people with limited context.",2,"Male",7,"Mandarin","I was a liberal up until mid-2016 when I became completely disillusioned with politics. I've always been fairly anti-establishment and at this point, I believe that it's highly likely that anybody who reaches a high level of power within our political systems has taken on at least a few sociopathic traits and behaviors, because our systems unfortunately tend to reward self-interested actions. I have very little faith in politics at this point and I just see it as a somewhat necessary evil. I've resigned myself to let other people fight it out, but I still try and live in a way that supports positive changes in society in terms of interpersonal empathy.","Other",0.46,"asian",NA,0,NA,NA,NA,NA,NA,"MA","['CA', 'MA', 'NV', 'NY', 'RI']","I'm not sure. I have a sort of distinctive and raspy voice that people often comment on. People tend to assume I'm from California and sometimes joke about my accent sounding sort of like a surfer or a valley boy. I actually only spent 3 years in California in my early 20's, and mostly grew up in the Metro Boston area, but I don't have a Boston accent. Some people may assume that I have a sort of SoCal accent because I have an 'alternative' aesthetic (long hair, piercings, tattoos) and I spent a lot of time immersed in SoCal punk-influenced culture growing up, despite not growing up there. I guess my accent is closest to that, but one time, I've also heard someone strangely say that my accent sounded slightly Irish (never heard that anywhere else), maybe because I grew up around a lot of Irish people. I also once heard someone say that I had a bit of an Australian accent, which was very strange but funny to me.",NA,"asian",0
4566,"default","COVID is an overhyped virus","M","block1","M-N-John.png","critical","list2","list2_NS","Mary didn't confess that","John","conservative",1,"confess",1671,15,"N","covid","NS",0.63,30,21,1,"CORRECT",0.44,"block2","name_question",0.5,0.66,0.33,0.64,"Mary","Judith","CORRECT",0.5,23926,27,0.49,"block3",0.71,11439,45,NA,12,"default","I think this experiment was trying to evaluate people's first impressions about other people and their political views, confidence in their beliefs, intellect, personality traits, and so on, based on accent, appearance, number of friends, the viewpoints they espouse, and the phrasing of their viewpoints, or something similar.","Yes",27,"Yes","I made a conscious effort to not automatically stereotype Southerners as being innately stupid or ignorant, even if I don't agree with extreme conservative views. I also believe that first impressions of people should be significantly subject to revision after further interactions, and it often takes time before really getting to know someone. I try not to form conclusive opinions about people with limited context.",2,"Male",7,"Mandarin","I was a liberal up until mid-2016 when I became completely disillusioned with politics. I've always been fairly anti-establishment and at this point, I believe that it's highly likely that anybody who reaches a high level of power within our political systems has taken on at least a few sociopathic traits and behaviors, because our systems unfortunately tend to reward self-interested actions. I have very little faith in politics at this point and I just see it as a somewhat necessary evil. I've resigned myself to let other people fight it out, but I still try and live in a way that supports positive changes in society in terms of interpersonal empathy.","Other",0.46,"asian",NA,0,NA,NA,NA,NA,NA,"MA","['CA', 'MA', 'NV', 'NY', 'RI']","I'm not sure. I have a sort of distinctive and raspy voice that people often comment on. People tend to assume I'm from California and sometimes joke about my accent sounding sort of like a surfer or a valley boy. I actually only spent 3 years in California in my early 20's, and mostly grew up in the Metro Boston area, but I don't have a Boston accent. Some people may assume that I have a sort of SoCal accent because I have an 'alternative' aesthetic (long hair, piercings, tattoos) and I spent a lot of time immersed in SoCal punk-influenced culture growing up, despite not growing up there. I guess my accent is closest to that, but one time, I've also heard someone strangely say that my accent sounded slightly Irish (never heard that anywhere else), maybe because I grew up around a lot of Irish people. I also once heard someone say that I had a bit of an Australian accent, which was very strange but funny to me.",NA,"asian",0
