"workerid","proliferate.condition.x","CC","SpeakerGender","block1","file","item_type","list","list_genderMaxes","list_whichSpPoliticsFirst","matrix_clause","name","orientation","participant_beliefs","predicate","rt_block1","slide_number_block1","socialInfo","speakerGendersMaxes","topic","whichSpPoliticsFirst","assertiveness_rating","block2","democrat_rating","empathy_rating","femininity_rating","intelligence_rating","location_rating","republican_rating","rt_block2","slide_number_block2","spBelief_rating","state_correct","state_incorrect","state_type","block3","projection","rt_block3","slide_number_block3","true_false","trial","proliferate.condition.y","about","accent","age","american","comments","education","gender","income","language","otherParty","party","politics","race_asian","race_black","race_hawaiian","race_latino","race_native","race_otherRaceCheck","race_otherRaceText","race_white","state","state1year","whichAccent","error"
4263,"default","COVID is an overhyped virus","M","block1","M-N-Daniel.png","critical","list2","list2_2","list2_NS","Mary doesn't see that","Daniel","conservative",0.01,"see",3826,4,"N",2,"COVID","NS",0.71,"block2",0.83,0.75,0.11,0.82,1,0.19,27960,22,0.11,"Washington","Delaware","CORRECT","block3",0.86,3627,55,NA,1,"default","Perceptions of people's political beliefs based on where they live","Yes",24,"Yes",NA,4,"Female",1,NA,NA,"Dem",0.06,0,0,0,0,0,0,NA,1,"KY","['KY', 'TX']","Southern",NA
4263,"default","the military is underfunded","F","block1","F-N-Lisa.png","critical","list2","list2_2","list2_NS","Emma isn't right that","Lisa","conservative",0,"be_right",5238,5,"N",2,"military","NS",0.47,"block2",0.76,0.49,0.9,0.61,1,0.23,14598,33,0.35,"Oregon","Wyoming","CORRECT","block3",0.75,16673,39,NA,2,"default","Perceptions of people's political beliefs based on where they live","Yes",24,"Yes",NA,4,"Female",1,NA,NA,"Dem",0.06,0,0,0,0,0,0,NA,1,"KY","['KY', 'TX']","Southern",NA
4263,"default","medicaid is underfunded","F","block1","F-N-Michelle.png","critical","list2","list2_2","list2_NS","Allison didn't admit that","Michelle","liberal",0.98,"admit",3042,6,"N",2,"medicaid","NS",0.67,"block2",0.69,0.68,0.48,0.69,0,0.22,18608,29,0.81,"Pennsylvania","Wisconsin","INCORRECT","block3",0.79,5625,49,NA,3,"default","Perceptions of people's political beliefs based on where they live","Yes",24,"Yes",NA,4,"Female",1,NA,NA,"Dem",0.06,0,0,0,0,0,0,NA,1,"KY","['KY', 'TX']","Southern",NA
4263,"default","it is too easy to buy guns","F","block1","F-S-Sarah.png","critical","list2","list2_2","list2_NS","Owen doesn't know that","Sarah","liberal",1,"know",4158,7,"S",2,"gun_laws","NS",0.39,"block2",0.13,0.71,0.61,0.51,0,0.82,15497,25,0.18,"Kentucky","Florida","INCORRECT","block3",0.98,7279,51,NA,4,"default","Perceptions of people's political beliefs based on where they live","Yes",24,"Yes",NA,4,"Female",1,NA,NA,"Dem",0.06,0,0,0,0,0,0,NA,1,"KY","['KY', 'TX']","Southern",NA
4263,"default","immigrants support the economy","F","block1","F-S-Donna.png","critical","list2","list2_2","list2_NS","Ben didn't confess that","Donna","liberal",0.97,"confess",2276,8,"S",2,"immigrants","NS",0.56,"block2",0.34,0.52,0.69,0.61,0,0.67,24636,23,0.38,"Tennessee","South Dakota","INCORRECT","block3",0.86,5613,53,NA,5,"default","Perceptions of people's political beliefs based on where they live","Yes",24,"Yes",NA,4,"Female",1,NA,NA,"Dem",0.06,0,0,0,0,0,0,NA,1,"KY","['KY', 'TX']","Southern",NA
4263,"default","Trump handled the pandemic well","F","block1","F-S-Amy.png","critical","list2","list2_2","list2_NS","Danny didn't confess that","Amy","conservative",0.1,"confess",6058,9,"S",2,"Trump_pandemic","NS",0.43,"block2",0.33,0.4,0.8,0.39,0,0.63,35839,26,0.53,"Arkansas","Conneticut","INCORRECT","block3",0.81,4345,52,NA,6,"default","Perceptions of people's political beliefs based on where they live","Yes",24,"Yes",NA,4,"Female",1,NA,NA,"Dem",0.06,0,0,0,0,0,0,NA,1,"KY","['KY', 'TX']","Southern",NA
4263,"default","U.S. presidential elections are held in November",NA,"block1","NA.png","O","list2","list2_2","list2_NS",NA,NA,NA,0.97,NA,2846,10,NA,2,"elections","NS",NA,NA,NA,NA,NA,NA,NA,NA,NA,NA,NA,NA,NA,NA,NA,NA,NA,NA,NA,7,"default","Perceptions of people's political beliefs based on where they live","Yes",24,"Yes",NA,4,"Female",1,NA,NA,"Dem",0.06,0,0,0,0,0,0,NA,1,"KY","['KY', 'TX']","Southern",NA
4263,"default","the rich are taxed too much","M","block1","M-N-Jacob.png","MC","list2","list2_2","list2_NS",NA,"Jacob","conservative",0,NA,4412,11,"N",2,"taxes","NS",0.68,"block2",0.87,0.71,0.1,0.76,1,0.11,14011,28,0.1,"Massachusetts","Vermont","CORRECT","block3",1,3067,45,NA,8,"default","Perceptions of people's political beliefs based on where they live","Yes",24,"Yes",NA,4,"Female",1,NA,NA,"Dem",0.06,0,0,0,0,0,0,NA,1,"KY","['KY', 'TX']","Southern",NA
4263,"default","it is too hard to get an abortion","M","block1","M-N-Tim.png","critical","list2","list2_2","list2_NS","Grace doesn't see that","Tim","liberal",1,"see",3010,12,"N",2,"abortion","NS",0.46,"block2",0.89,0.66,0.24,0.75,0,0.13,9873,34,0.69,"California","Montana","INCORRECT","block3",1,3963,61,NA,9,"default","Perceptions of people's political beliefs based on where they live","Yes",24,"Yes",NA,4,"Female",1,NA,NA,"Dem",0.06,0,0,0,0,0,0,NA,1,"KY","['KY', 'TX']","Southern",NA
4263,"default","the uprising at the Capitol was patriotic","M","block1","M-S-Michael.png","critical","list2","list2_2","list2_NS","Glenn doesn't know that","Michael","conservative",0,"know",2648,13,"S",2,"capitol_uprising","NS",0.43,"block2",0.3,0.67,0.24,0.55,0,0.78,20308,24,0.42,"Georgia","Nevada","INCORRECT","block3",1,2911,58,NA,10,"default","Perceptions of people's political beliefs based on where they live","Yes",24,"Yes",NA,4,"Female",1,NA,NA,"Dem",0.06,0,0,0,0,0,0,NA,1,"KY","['KY', 'TX']","Southern",NA
4263,"default","the minimum wage is too low","M","block1","M-S-Anthony.png","critical","list2","list2_2","list2_NS","Ken didn't suggest that","Anthony","liberal",1,"suggest",3484,14,"S",2,"minimum_wage","NS",0.59,"block2",0.18,0.47,0,0.53,0,0.8,11933,31,0.27,"Tennessee","Alaska","INCORRECT","block3",0.8,9469,38,NA,11,"default","Perceptions of people's political beliefs based on where they live","Yes",24,"Yes",NA,4,"Female",1,NA,NA,"Dem",0.06,0,0,0,0,0,0,NA,1,"KY","['KY', 'TX']","Southern",NA
4263,"default","mask mandates are unnecessary","F","block1","F-N-Anna.png","critical","list2","list2_2","list2_NS","Wendy didn't admit that","Anna","conservative",0,"admit",5234,15,"N",2,"masks","NS",0.45,"block2",0.8,0.51,0.42,0.64,1,0.19,98285,36,0.2,"Maryland","New Mexico","CORRECT","block3",0.86,4442,54,NA,12,"default","Perceptions of people's political beliefs based on where they live","Yes",24,"Yes",NA,4,"Female",1,NA,NA,"Dem",0.06,0,0,0,0,0,0,NA,1,"KY","['KY', 'TX']","Southern",NA
4263,"default","Trump's policies improved the American economy","M","block1","M-S-Ryan.png","critical","list2","list2_2","list2_NS","Tony didn't suggest that","Ryan","conservative",0.14,"suggest",5376,16,"S",2,"Trump_economy","NS",0.43,"block2",0.28,0.36,0.04,0.34,1,0.73,14880,35,0.67,"Arkansas","Utah","CORRECT","block3",0.73,7082,40,NA,13,"default","Perceptions of people's political beliefs based on where they live","Yes",24,"Yes",NA,4,"Female",1,NA,NA,"Dem",0.06,0,0,0,0,0,0,NA,1,"KY","['KY', 'TX']","Southern",NA
4263,"default","closing businesses during COVID was unnecessary","F","block1","F-S-Lily.png","MC","list2","list2_2","list2_NS",NA,"Lily","conservative",0,NA,3105,17,"S",2,"lockdown","NS",0.44,"block2",0.59,0.66,0.79,0.68,0,0.28,13488,27,0.15,"Missouri","North Dakota","INCORRECT","block3",1,6533,56,NA,14,"default","Perceptions of people's political beliefs based on where they live","Yes",24,"Yes",NA,4,"Female",1,NA,NA,"Dem",0.06,0,0,0,0,0,0,NA,1,"KY","['KY', 'TX']","Southern",NA
4263,"default","the 2020 election was legitimate","M","block1","M-N-John.png","critical","list2","list2_2","list2_NS","Jen isn't right that","John","liberal",0.99,"be_right",2982,18,"N",2,"2020_election","NS",0.73,"block2",0.93,0.82,0.09,0.87,1,0.1,18461,21,0.97,"California","West Virginia","CORRECT","block3",0,6001,47,NA,15,"default","Perceptions of people's political beliefs based on where they live","Yes",24,"Yes",NA,4,"Female",1,NA,NA,"Dem",0.06,0,0,0,0,0,0,NA,1,"KY","['KY', 'TX']","Southern",NA
4263,"default","the capital of the US is in Ohio",NA,"block1","NA.png","O","list2","list2_2","list2_NS",NA,NA,NA,0,NA,2865,19,NA,2,"capital","NS",NA,NA,NA,NA,NA,NA,NA,NA,NA,NA,NA,NA,NA,NA,NA,NA,NA,NA,NA,16,"default","Perceptions of people's political beliefs based on where they live","Yes",24,"Yes",NA,4,"Female",1,NA,NA,"Dem",0.06,0,0,0,0,0,0,NA,1,"KY","['KY', 'TX']","Southern",NA
4089,"default","immigrants steal jobs from Americans","F","block1","F-S-Sarah.png","critical","list1","list1_1","list1_NS","Ben doesn't think that","Sarah","conservative",0,"think",5078,4,"S",1,"immigrants","NS",0.54,"block2",0,0.09,0.38,0,0,0.98,25856,31,1,"Kentucky","Utah","INCORRECT","block3",0.55,7824,48,NA,1,"default","How much personal opinions affect how you interpret what others say","Yes",39,"Yes",NA,2,"Female",3,"n/a","Democratic socialist","Other",0,0,0,0,0,0,0,NA,1,"OH","['MD', 'OH', 'VA']","somewhat southern",NA
4089,"default","COVID is a dangerous virus","M","block1","M-N-Daniel.png","critical","list1","list1_1","list1_NS","Mary didn't hear that","Daniel","liberal",1,"hear",5712,5,"N",1,"COVID","NS",0.68,"block2",0.84,0.71,0.15,0.72,1,0.14,27071,34,0.86,"Washington","Minnesota","CORRECT","block3",0.5,6720,58,NA,2,"default","How much personal opinions affect how you interpret what others say","Yes",39,"Yes",NA,2,"Female",3,"n/a","Democratic socialist","Other",0,0,0,0,0,0,0,NA,1,"OH","['MD', 'OH', 'VA']","somewhat southern",NA
4089,"default","Trump handled the pandemic badly","F","block1","F-S-Kimberly.png","critical","list1","list1_1","list1_NS","Danny doesn't think that","Kimberly","liberal",1,"think",5695,6,"S",1,"Trump_pandemic","NS",0.24,"block2",0.03,0.24,0.89,0.23,0,1,24280,25,0,"Alabama","Illinois","INCORRECT","block3",0.5,13759,43,NA,3,"default","How much personal opinions affect how you interpret what others say","Yes",39,"Yes",NA,2,"Female",3,"n/a","Democratic socialist","Other",0,0,0,0,0,0,0,NA,1,"OH","['MD', 'OH', 'VA']","somewhat southern",NA
4089,"default","it is too easy to get an abortion","M","block1","M-N-Tim.png","critical","list1","list1_1","list1_NS","Grace didn't hear that","Tim","conservative",0,"hear",3512,7,"N",1,"abortion","NS",0.22,"block2",0.85,0.55,0.43,0.5,0,0.08,37137,21,0.19,"California","Florida","INCORRECT","block3",0.56,7374,54,NA,4,"default","How much personal opinions affect how you interpret what others say","Yes",39,"Yes",NA,2,"Female",3,"n/a","Democratic socialist","Other",0,0,0,0,0,0,0,NA,1,"OH","['MD', 'OH', 'VA']","somewhat southern",NA
4089,"default","the 2020 election was rigged","M","block1","M-N-James.png","critical","list1","list1_1","list1_NS","Jen didn't confess that","James","conservative",0,"confess",3864,8,"N",1,"2020_election","NS",0.73,"block2",0.86,0.47,0.18,0.72,0,0.07,17447,30,0.02,"New York","Conneticut","INCORRECT","block3",0.82,6966,47,NA,5,"default","How much personal opinions affect how you interpret what others say","Yes",39,"Yes",NA,2,"Female",3,"n/a","Democratic socialist","Other",0,0,0,0,0,0,0,NA,1,"OH","['MD', 'OH', 'VA']","somewhat southern",NA
4089,"default","it is too difficult to buy guns","F","block1","F-S-Amy.png","critical","list1","list1_1","list1_NS","Owen didn't acknowledge","Amy","conservative",0,"acknowledge",3952,9,"S",1,"gun_laws","NS",0.74,"block2",0.02,0.28,0.24,0.25,1,0.98,26903,32,0.66,"Arkansas","Idaho","CORRECT","block3",0.86,7760,60,NA,6,"default","How much personal opinions affect how you interpret what others say","Yes",39,"Yes",NA,2,"Female",3,"n/a","Democratic socialist","Other",0,0,0,0,0,0,0,NA,1,"OH","['MD', 'OH', 'VA']","somewhat southern",NA
4089,"default","Trump's policies damaged the American economy","M","block1","M-S-Jason.png","critical","list1","list1_1","list1_NS","Tony didn't pretend that","Jason","liberal",1,"pretend",5071,10,"S",1,"Trump_economy","NS",0.31,"block2",0.11,0.31,0.31,0.3,0,0.87,22639,33,0.08,"Kentucky","Nevada","INCORRECT","block3",0.5,11600,55,NA,7,"default","How much personal opinions affect how you interpret what others say","Yes",39,"Yes",NA,2,"Female",3,"n/a","Democratic socialist","Other",0,0,0,0,0,0,0,NA,1,"OH","['MD', 'OH', 'VA']","somewhat southern",NA
4089,"default","the rich are taxed too little","F","block1","F-N-Rachel.png","MC","list1","list1_1","list1_NS",NA,"Rachel","liberal",1,NA,3608,11,"N",1,"taxes","NS",0.77,"block2",0.98,0.76,0.67,0.73,0.99,0.01,23743,28,0.99,"Michigan","Rhode Island","CORRECT","block3",0.97,4304,59,NA,8,"default","How much personal opinions affect how you interpret what others say","Yes",39,"Yes",NA,2,"Female",3,"n/a","Democratic socialist","Other",0,0,0,0,0,0,0,NA,1,"OH","['MD', 'OH', 'VA']","somewhat southern",NA
4089,"default","U.S. presidential elections are held in November",NA,"block1","NA.png","O","list1","list1_1","list1_NS",NA,NA,NA,1,NA,4585,12,NA,1,"elections","NS",NA,NA,NA,NA,NA,NA,NA,NA,NA,NA,NA,NA,NA,NA,NA,NA,NA,NA,NA,9,"default","How much personal opinions affect how you interpret what others say","Yes",39,"Yes",NA,2,"Female",3,"n/a","Democratic socialist","Other",0,0,0,0,0,0,0,NA,1,"OH","['MD', 'OH', 'VA']","somewhat southern",NA
4089,"default","medicaid is overfunded","F","block1","F-N-Helen.png","critical","list1","list1_1","list1_NS","Allison isn't annoyed that","Helen","conservative",0,"be_annoyed",3423,13,"N",1,"medicaid","NS",0.58,"block2",0.91,0.53,0.54,0.55,0.99,0.09,31007,27,0,"California","New Hampshire","CORRECT","block3",0.48,4606,45,NA,10,"default","How much personal opinions affect how you interpret what others say","Yes",39,"Yes",NA,2,"Female",3,"n/a","Democratic socialist","Other",0,0,0,0,0,0,0,NA,1,"OH","['MD', 'OH', 'VA']","somewhat southern",NA
4089,"default","the uprising at the Capitol was domestic terrorism","M","block1","M-S-Anthony.png","critical","list1","list1_1","list1_NS","Glenn didn't acknowledge","Anthony","liberal",1,"acknowledge",4195,14,"S",1,"capitol_uprising","NS",0.79,"block2",0.03,0.23,0.17,0.25,0,0.99,19495,29,0,"Tennessee","Alaska","INCORRECT","block3",0.85,6558,49,NA,11,"default","How much personal opinions affect how you interpret what others say","Yes",39,"Yes",NA,2,"Female",3,"n/a","Democratic socialist","Other",0,0,0,0,0,0,0,NA,1,"OH","['MD', 'OH', 'VA']","somewhat southern",NA
4089,"default","mask mandates are necessary","F","block1","F-N-Michelle.png","critical","list1","list1_1","list1_NS","Wendy isn't annoyed that","Michelle","liberal",1,"be_annoyed",3567,15,"N",1,"masks","NS",0.24,"block2",0.14,0.25,0.67,0.22,1,0.93,26168,23,0.05,"Pennsylvania","Hawaii","CORRECT","block3",0.49,8248,44,NA,12,"default","How much personal opinions affect how you interpret what others say","Yes",39,"Yes",NA,2,"Female",3,"n/a","Democratic socialist","Other",0,0,0,0,0,0,0,NA,1,"OH","['MD', 'OH', 'VA']","somewhat southern",NA
4089,"default","closing businesses during COVID was necessary","F","block1","F-S-Lily.png","MC","list1","list1_1","list1_NS",NA,"Lily","liberal",1,NA,3520,16,"S",1,"lockdown","NS",0.37,"block2",0.81,0.61,0.62,0.5,1,0.17,34640,26,0.8,"Missouri","New Jersey","CORRECT","block3",1,7103,42,NA,13,"default","How much personal opinions affect how you interpret what others say","Yes",39,"Yes",NA,2,"Female",3,"n/a","Democratic socialist","Other",0,0,0,0,0,0,0,NA,1,"OH","['MD', 'OH', 'VA']","somewhat southern",NA
4089,"default","the minimum wage is too high","M","block1","M-S-Michael.png","critical","list1","list1_1","list1_NS","Ken didn't pretend that","Michael","conservative",0,"pretend",3599,17,"S",1,"minimum_wage","NS",0.39,"block2",0.34,0.39,0.06,0.29,1,0.9,29551,22,0.82,"Georgia","Delaware","CORRECT","block3",0.91,20992,38,NA,14,"default","How much personal opinions affect how you interpret what others say","Yes",39,"Yes",NA,2,"Female",3,"n/a","Democratic socialist","Other",0,0,0,0,0,0,0,NA,1,"OH","['MD', 'OH', 'VA']","somewhat southern",NA
4089,"default","the capital of the US is in Ohio",NA,"block1","NA.png","O","list1","list1_1","list1_NS",NA,NA,NA,0,NA,3719,18,NA,1,"capital","NS",NA,NA,NA,NA,NA,NA,NA,NA,NA,NA,NA,NA,NA,NA,NA,NA,NA,NA,NA,15,"default","How much personal opinions affect how you interpret what others say","Yes",39,"Yes",NA,2,"Female",3,"n/a","Democratic socialist","Other",0,0,0,0,0,0,0,NA,1,"OH","['MD', 'OH', 'VA']","somewhat southern",NA
4089,"default","the military is overfunded","F","block1","F-N-Lisa.png","critical","list1","list1_1","list1_NS","Emma didn't confess that","Lisa","liberal",1,"confess",26455,19,"N",1,"military","NS",0.47,"block2",0.5,0.47,0.84,0.47,0.97,0.53,22479,24,0.49,"Oregon","Wisconsin","CORRECT","block3",0.74,6672,51,NA,16,"default","How much personal opinions affect how you interpret what others say","Yes",39,"Yes",NA,2,"Female",3,"n/a","Democratic socialist","Other",0,0,0,0,0,0,0,NA,1,"OH","['MD', 'OH', 'VA']","somewhat southern",NA
4203,"default","Trump handled the pandemic badly","M","block1","M-N-Daniel.png","critical","list1","list1_2","list1_S","Danny doesn't see that","Daniel","liberal",0.98,"see",13075,4,"N",2,"Trump_pandemic","S",0.52,"block2",0.87,0.61,0.2,0.63,1,0.08,19808,33,0.91,"Washington","New Jersey","CORRECT","block3",0.96,8208,59,NA,1,"default","Impressions of people.","No",44,"Yes","No comments.",2,"Male",4,NA,NA,"Dem",0.48,0,0,0,0,0,0,NA,1,"NY","['NY']",NA,NA
4203,"default","mask mandates are necessary","M","block1","M-S-Michael.png","critical","list1","list1_2","list1_S","Wendy didn't admit that","Michael","liberal",0.78,"admit",3111,5,"S",2,"masks","S",0.57,"block2",0.09,0.37,0.08,0.36,0,0.87,18887,34,0,"Georgia","Delaware","INCORRECT","block3",0.8,5560,46,NA,2,"default","Impressions of people.","No",44,"Yes","No comments.",2,"Male",4,NA,NA,"Dem",0.48,0,0,0,0,0,0,NA,1,"NY","['NY']",NA,NA
4203,"default","it is too easy to get an abortion","F","block1","F-S-Kimberly.png","critical","list1","list1_2","list1_S","Grace doesn't know that","Kimberly","conservative",1,"know",4335,6,"S",2,"abortion","S",0.09,"block2",0.23,0.71,0.77,0.2,1,0.65,39055,23,1,"Alabama","Wisconsin","CORRECT","block3",0.97,10743,48,NA,3,"default","Impressions of people.","No",44,"Yes","No comments.",2,"Male",4,NA,NA,"Dem",0.48,0,0,0,0,0,0,NA,1,"NY","['NY']",NA,NA
4203,"default","closing businesses during COVID was necessary","M","block1","M-N-Jacob.png","MC","list1","list1_2","list1_S",NA,"Jacob","liberal",0,NA,5000,7,"N",2,"lockdown","S",0.25,"block2",0.88,0.47,0.11,0.49,1,0.06,20359,29,0.57,"Massachusetts","Conneticut","CORRECT","block3",0.93,5903,50,NA,4,"default","Impressions of people.","No",44,"Yes","No comments.",2,"Male",4,NA,NA,"Dem",0.48,0,0,0,0,0,0,NA,1,"NY","['NY']",NA,NA
4203,"default","the military is overfunded","F","block1","F-S-Donna.png","critical","list1","list1_2","list1_S","Emma isn't annoyed that","Donna","liberal",1,"be_annoyed",5336,8,"S",2,"military","S",0.17,"block2",0.16,0.68,0.88,0.4,0,0.77,26150,22,0.01,"Tennessee","Illinois","INCORRECT","block3",0.88,17703,39,NA,5,"default","Impressions of people.","No",44,"Yes","No comments.",2,"Male",4,NA,NA,"Dem",0.48,0,0,0,0,0,0,NA,1,"NY","['NY']",NA,NA
4203,"default","Trump's policies damaged the American economy","F","block1","F-N-Elizabeth.png","critical","list1","list1_2","list1_S","Tony didn't suggest that","Elizabeth","liberal",0.45,"suggest",7424,9,"N",2,"Trump_economy","S",0.25,"block2",0.84,0.68,0.81,0.56,0,0.1,23527,28,0.67,"Colorado","Ohio","INCORRECT","block3",0.56,9383,40,NA,6,"default","Impressions of people.","No",44,"Yes","No comments.",2,"Male",4,NA,NA,"Dem",0.48,0,0,0,0,0,0,NA,1,"NY","['NY']",NA,NA
4203,"default","immigrants steal jobs from Americans","M","block1","M-N-James.png","critical","list1","list1_2","list1_S","Ben doesn't see that","James","conservative",0.07,"see",3344,10,"N",2,"immigrants","S",0.6,"block2",0.77,0.2,0.04,0.35,0,0.18,19854,35,0.69,"New York","Idaho","INCORRECT","block3",0.9,8423,53,NA,7,"default","Impressions of people.","No",44,"Yes","No comments.",2,"Male",4,NA,NA,"Dem",0.48,0,0,0,0,0,0,NA,1,"NY","['NY']",NA,NA
4203,"default","the 2020 election was rigged","M","block1","M-S-Joseph.png","critical","list1","list1_2","list1_S","Jen isn't annoyed that","Joseph","conservative",0,"be_annoyed",2791,11,"S",2,"2020_election","S",0.32,"block2",0.13,0.25,0.05,0.07,1,0.78,15439,30,0.88,"Mississippi","Minnesota","CORRECT","block3",0.89,6359,60,NA,8,"default","Impressions of people.","No",44,"Yes","No comments.",2,"Male",4,NA,NA,"Dem",0.48,0,0,0,0,0,0,NA,1,"NY","['NY']",NA,NA
4203,"default","the capital of the US is in Ohio",NA,"block1","NA.png","O","list1","list1_2","list1_S",NA,NA,NA,0,NA,2736,12,NA,2,"capital","S",NA,NA,NA,NA,NA,NA,NA,NA,NA,NA,NA,NA,NA,NA,NA,NA,NA,NA,NA,9,"default","Impressions of people.","No",44,"Yes","No comments.",2,"Male",4,NA,NA,"Dem",0.48,0,0,0,0,0,0,NA,1,"NY","['NY']",NA,NA
4203,"default","medicaid is overfunded","M","block1","M-S-Jason.png","critical","list1","list1_2","list1_S","Allison didn't admit that","Jason","conservative",0.03,"admit",5072,13,"S",2,"medicaid","S",0.32,"block2",0.06,0.38,0.38,0.47,0,0.78,52657,21,0.87,"Kentucky","Alaska","INCORRECT","block3",0.74,9039,45,NA,10,"default","Impressions of people.","No",44,"Yes","No comments.",2,"Male",4,NA,NA,"Dem",0.48,0,0,0,0,0,0,NA,1,"NY","['NY']",NA,NA
4203,"default","it is too difficult to buy guns","F","block1","F-N-Anna.png","critical","list1","list1_2","list1_S","Owen didn't pretend that","Anna","conservative",0.1,"pretend",4968,14,"N",2,"gun_laws","S",0.3,"block2",0.75,0.65,0.82,0.51,1,0.2,23879,25,0.08,"Maryland","North Dakota","CORRECT","block3",0.17,11455,58,NA,11,"default","Impressions of people.","No",44,"Yes","No comments.",2,"Male",4,NA,NA,"Dem",0.48,0,0,0,0,0,0,NA,1,"NY","['NY']",NA,NA
4203,"default","COVID is a dangerous virus","F","block1","F-S-Amy.png","critical","list1","list1_2","list1_S","Mary doesn't know that","Amy","liberal",0.29,"know",2872,15,"S",2,"COVID","S",0.2,"block2",0.16,0.77,0.88,0.34,1,0.82,22623,36,0,"Arkansas","Vermont","CORRECT","block3",1,5624,61,NA,12,"default","Impressions of people.","No",44,"Yes","No comments.",2,"Male",4,NA,NA,"Dem",0.48,0,0,0,0,0,0,NA,1,"NY","['NY']",NA,NA
4203,"default","the rich are taxed too little","M","block1","M-S-Eric.png","MC","list1","list1_2","list1_S",NA,"Eric","liberal",1,NA,2976,16,"S",2,"taxes","S",0.55,"block2",1,0.34,0.04,0.33,1,0,22383,27,1,"Louisiana","Nevada","CORRECT","block3",0.96,5199,44,NA,13,"default","Impressions of people.","No",44,"Yes","No comments.",2,"Male",4,NA,NA,"Dem",0.48,0,0,0,0,0,0,NA,1,"NY","['NY']",NA,NA
4203,"default","U.S. presidential elections are held in November",NA,"block1","NA.png","O","list1","list1_2","list1_S",NA,NA,NA,1,NA,5096,17,NA,2,"elections","S",NA,NA,NA,NA,NA,NA,NA,NA,NA,NA,NA,NA,NA,NA,NA,NA,NA,NA,NA,14,"default","Impressions of people.","No",44,"Yes","No comments.",2,"Male",4,NA,NA,"Dem",0.48,0,0,0,0,0,0,NA,1,"NY","['NY']",NA,NA
4203,"default","the uprising at the Capitol was domestic terrorism","M","block1","M-N-John.png","critical","list1","list1_2","list1_S","Glenn didn't pretend that","John","liberal",0.41,"pretend",7247,18,"N",2,"capitol_uprising","S",0.48,"block2",0.91,0.53,0.1,0.56,0.98,0.05,26287,32,0.82,"California","New Mexico","CORRECT","block3",0.6,7887,57,NA,15,"default","Impressions of people.","No",44,"Yes","No comments.",2,"Male",4,NA,NA,"Dem",0.48,0,0,0,0,0,0,NA,1,"NY","['NY']",NA,NA
4203,"default","the minimum wage is too high","F","block1","F-N-Lisa.png","critical","list1","list1_2","list1_S","Ken didn't suggest that","Lisa","conservative",0,"suggest",4039,19,"N",2,"minimum_wage","S",0.4,"block2",1,0.75,0.87,0.69,0,0,17152,31,0,"Oregon","South Dakota","INCORRECT","block3",0.2,9575,49,NA,16,"default","Impressions of people.","No",44,"Yes","No comments.",2,"Male",4,NA,NA,"Dem",0.48,0,0,0,0,0,0,NA,1,"NY","['NY']",NA,NA
4243,"default","medicaid is underfunded","F","block1","F-N-Helen.png","critical","list2","list2_1","list2_NS","Allison didn't acknowledge","Helen","liberal",0.88,"acknowledge",8180,4,"N",1,"medicaid","NS",0.81,"block2",0.78,0.93,1,0.89,0,0.19,63577,34,0.89,"California","Montana","INCORRECT","block3",0.89,7754,53,NA,1,"default","Perceptions of different people.","No",44,"Yes",NA,2,"Female",0,NA,NA,"Dem",0.17,0,0,0,1,0,0,NA,1,"OH","['IN', 'MI', 'OH']",NA,NA
4243,"default","it is too hard to get an abortion","M","block1","M-N-Tim.png","critical","list2","list2_1","list2_NS","Grace doesn't see that","Tim","liberal",0.86,"see",4050,5,"N",1,"abortion","NS",0.32,"block2",0.7,0.57,0,0.46,0,0.16,28595,26,0.16,"California","Ohio","INCORRECT","block3",1,42689,55,NA,2,"default","Perceptions of different people.","No",44,"Yes",NA,2,"Female",0,NA,NA,"Dem",0.17,0,0,0,1,0,0,NA,1,"OH","['IN', 'MI', 'OH']",NA,NA
4243,"default","the capital of the US is in Ohio",NA,"block1","NA.png","O","list2","list2_1","list2_NS",NA,NA,NA,0.02,NA,6069,6,NA,1,"capital","NS",NA,NA,NA,NA,NA,NA,NA,NA,NA,NA,NA,NA,NA,NA,NA,NA,NA,NA,NA,3,"default","Perceptions of different people.","No",44,"Yes",NA,2,"Female",0,NA,NA,"Dem",0.17,0,0,0,1,0,0,NA,1,"OH","['IN', 'MI', 'OH']",NA,NA
4243,"default","Trump handled the pandemic well","F","block1","F-S-Sarah.png","critical","list2","list2_1","list2_NS","Danny doesn't know that","Sarah","conservative",0,"know",5632,7,"S",1,"Trump_pandemic","NS",0.9,"block2",0.81,0.88,1,0.9,0,0.15,30741,32,0.11,"Kentucky","Rhode Island","INCORRECT","block3",0.93,8421,50,NA,4,"default","Perceptions of different people.","No",44,"Yes",NA,2,"Female",0,NA,NA,"Dem",0.17,0,0,0,1,0,0,NA,1,"OH","['IN', 'MI', 'OH']",NA,NA
4243,"default","the rich are taxed too much","F","block1","F-N-Veronica.png","MC","list2","list2_1","list2_NS",NA,"Veronica","conservative",0,NA,4502,8,"N",1,"taxes","NS",0.66,"block2",0.84,0.92,0.99,0.89,0,0.08,32017,21,0,"Illinois","Utah","INCORRECT","block3",1,6834,48,NA,5,"default","Perceptions of different people.","No",44,"Yes",NA,2,"Female",0,NA,NA,"Dem",0.17,0,0,0,1,0,0,NA,1,"OH","['IN', 'MI', 'OH']",NA,NA
4243,"default","the military is underfunded","M","block1","M-N-Daniel.png","critical","list2","list2_1","list2_NS","Emma didn't confess that","Daniel","conservative",0,"confess",5489,9,"N",1,"military","NS",0.66,"block2",0.82,0.74,0,0.74,1,0.15,40210,28,0.32,"Washington","Vermont","CORRECT","block3",0.2,22607,60,NA,6,"default","Perceptions of different people.","No",44,"Yes",NA,2,"Female",0,NA,NA,"Dem",0.17,0,0,0,1,0,0,NA,1,"OH","['IN', 'MI', 'OH']",NA,NA
4243,"default","the uprising at the Capitol was patriotic","F","block1","F-S-Amy.png","critical","list2","list2_1","list2_NS","Glenn isn't right that","Amy","conservative",0,"be_right",19385,10,"S",1,"capitol_uprising","NS",0.74,"block2",0.27,0.86,1,0.69,1,0.73,32716,27,0.86,"Arkansas","Idaho","CORRECT","block3",0,15915,51,NA,7,"default","Perceptions of different people.","No",44,"Yes",NA,2,"Female",0,NA,NA,"Dem",0.17,0,0,0,1,0,0,NA,1,"OH","['IN', 'MI', 'OH']",NA,NA
4243,"default","the 2020 election was legitimate","F","block1","F-N-Lisa.png","critical","list2","list2_1","list2_NS","Jen didn't confess that","Lisa","liberal",1,"confess",8631,11,"N",1,"2020_election","NS",0.8,"block2",0.82,0.88,1,0.94,1,0.22,49886,35,1,"Oregon","Wyoming","CORRECT","block3",0.89,6120,61,NA,8,"default","Perceptions of different people.","No",44,"Yes",NA,2,"Female",0,NA,NA,"Dem",0.17,0,0,0,1,0,0,NA,1,"OH","['IN', 'MI', 'OH']",NA,NA
4243,"default","closing businesses during COVID was unnecessary","M","block1","M-S-Jay.png","MC","list2","list2_1","list2_NS",NA,"Jay","conservative",0,NA,8858,12,"S",1,"lockdown","NS",0.39,"block2",0.8,0.32,0,0.58,0,0.17,39512,33,0.07,"Virginia","Nebraska","INCORRECT","block3",0.93,6055,39,NA,9,"default","Perceptions of different people.","No",44,"Yes",NA,2,"Female",0,NA,NA,"Dem",0.17,0,0,0,1,0,0,NA,1,"OH","['IN', 'MI', 'OH']",NA,NA
4243,"default","mask mandates are unnecessary","F","block1","F-N-Elizabeth.png","critical","list2","list2_1","list2_NS","Wendy didn't acknowledge","Elizabeth","conservative",0,"acknowledge",4199,13,"N",1,"masks","NS",0.79,"block2",0.91,0.89,1,0.86,1,0.12,51526,36,0.11,"Colorado","Illinois","CORRECT","block3",0.89,30171,54,NA,10,"default","Perceptions of different people.","No",44,"Yes",NA,2,"Female",0,NA,NA,"Dem",0.17,0,0,0,1,0,0,NA,1,"OH","['IN', 'MI', 'OH']",NA,NA
4243,"default","Trump's policies improved the American economy","M","block1","M-S-Ryan.png","critical","list2","list2_1","list2_NS","Tony didn't suggest that","Ryan","conservative",0,"suggest",4513,14,"S",1,"Trump_economy","NS",0.72,"block2",0.24,0.63,0,0.83,1,0.81,57346,30,0.53,"Arkansas","New Hampshire","CORRECT","block3",0.55,15731,45,NA,11,"default","Perceptions of different people.","No",44,"Yes",NA,2,"Female",0,NA,NA,"Dem",0.17,0,0,0,1,0,0,NA,1,"OH","['IN', 'MI', 'OH']",NA,NA
4243,"default","U.S. presidential elections are held in November",NA,"block1","NA.png","O","list2","list2_1","list2_NS",NA,NA,NA,1,NA,4839,15,NA,1,"elections","NS",NA,NA,NA,NA,NA,NA,NA,NA,NA,NA,NA,NA,NA,NA,NA,NA,NA,NA,NA,12,"default","Perceptions of different people.","No",44,"Yes",NA,2,"Female",0,NA,NA,"Dem",0.17,0,0,0,1,0,0,NA,1,"OH","['IN', 'MI', 'OH']",NA,NA
4243,"default","the minimum wage is too low","M","block1","M-S-Jason.png","critical","list2","list2_1","list2_NS","Ken didn't suggest that","Jason","liberal",1,"suggest",4905,16,"S",1,"minimum_wage","NS",0.52,"block2",0.35,0.54,0,0.6,0,0.69,27382,24,0.99,"Kentucky","Conneticut","INCORRECT","block3",0.54,15501,52,NA,13,"default","Perceptions of different people.","No",44,"Yes",NA,2,"Female",0,NA,NA,"Dem",0.17,0,0,0,1,0,0,NA,1,"OH","['IN', 'MI', 'OH']",NA,NA
4243,"default","it is too easy to buy guns","M","block1","M-S-Michael.png","critical","list2","list2_1","list2_NS","Owen isn't right that","Michael","liberal",0.1,"be_right",6108,17,"S",1,"gun_laws","NS",0.53,"block2",0.11,0.75,0,0.82,0.98,0.81,55620,25,0.24,"Georgia","North Dakota","CORRECT","block3",0,74805,43,NA,14,"default","Perceptions of different people.","No",44,"Yes",NA,2,"Female",0,NA,NA,"Dem",0.17,0,0,0,1,0,0,NA,1,"OH","['IN', 'MI', 'OH']",NA,NA
4243,"default","COVID is an overhyped virus","M","block1","M-N-John.png","critical","list2","list2_1","list2_NS","Mary doesn't see that","John","conservative",0.06,"see",3757,18,"N",1,"COVID","NS",0.71,"block2",0.16,0.3,0,0.55,0.98,0.84,23298,22,0.84,"California","Maine","CORRECT","block3",0.1,10819,44,NA,15,"default","Perceptions of different people.","No",44,"Yes",NA,2,"Female",0,NA,NA,"Dem",0.17,0,0,0,1,0,0,NA,1,"OH","['IN', 'MI', 'OH']",NA,NA
4243,"default","immigrants support the economy","F","block1","F-S-Kimberly.png","critical","list2","list2_1","list2_NS","Ben doesn't know that","Kimberly","liberal",1,"know",11153,19,"S",1,"immigrants","NS",0.71,"block2",0.22,0.83,1,0.68,0,0.8,65198,31,0.23,"Alabama","New Jersey","INCORRECT","block3",0.16,18086,40,NA,16,"default","Perceptions of different people.","No",44,"Yes",NA,2,"Female",0,NA,NA,"Dem",0.17,0,0,0,1,0,0,NA,1,"OH","['IN', 'MI', 'OH']",NA,NA
4105,"default","medicaid is underfunded","F","block1","F-S-Donna.png","critical","list2","list2_1","list2_S","Allison isn't annoyed that","Donna","liberal",0.97,"be_annoyed",10400,4,"S",1,"medicaid","S",0.58,"block2",1,0.58,0.56,0.59,0.01,0.98,19158,29,0.53,"Tennessee","Vermont","INCORRECT","block3",0.79,6934,57,NA,1,"default","Political beliefs","No",46,"Yes","no comments.",1,"Female",0,"n/a",NA,"Dem",0.48,0,0,0,0,0,0,NA,1,"NV","['NV']",NA,NA
4105,"default","the capital of the US is in Ohio",NA,"block1","NA.png","O","list2","list2_1","list2_S",NA,NA,NA,0.01,NA,11919,5,NA,1,"capital","S",NA,NA,NA,NA,NA,NA,NA,NA,NA,NA,NA,NA,NA,NA,NA,NA,NA,NA,NA,2,"default","Political beliefs","No",46,"Yes","no comments.",1,"Female",0,"n/a",NA,"Dem",0.48,0,0,0,0,0,0,NA,1,"NV","['NV']",NA,NA
4105,"default","it is too hard to get an abortion","M","block1","M-S-Joseph.png","critical","list2","list2_1","list2_S","Grace doesn't see that","Joseph","liberal",0.01,"see",5451,6,"S",1,"abortion","S",0.58,"block2",0.98,0.59,0.58,0.58,0.99,0.99,22580,36,0.5,"Mississippi","North Dakota","CORRECT","block3",0.55,6596,41,NA,3,"default","Political beliefs","No",46,"Yes","no comments.",1,"Female",0,"n/a",NA,"Dem",0.48,0,0,0,0,0,0,NA,1,"NV","['NV']",NA,NA
4105,"default","the 2020 election was legitimate","M","block1","M-S-Michael.png","critical","list2","list2_1","list2_S","Jen isn't right that","Michael","liberal",0.98,"be_right",4190,7,"S",1,"2020_election","S",0.57,"block2",0.99,0.57,0.58,0.57,0.99,0.99,22486,31,0.59,"Georgia","Maine","CORRECT","block3",0.62,5804,44,NA,4,"default","Political beliefs","No",46,"Yes","no comments.",1,"Female",0,"n/a",NA,"Dem",0.48,0,0,0,0,0,0,NA,1,"NV","['NV']",NA,NA
4105,"default","immigrants support the economy","F","block1","F-N-Michelle.png","critical","list2","list2_1","list2_S","Ben didn't suggest that","Michelle","liberal",0.47,"suggest",5659,8,"N",1,"immigrants","S",0.58,"block2",0.99,0.58,0.58,0.56,0.01,0.99,35775,27,0.53,"Pennsylvania","Nebraska","INCORRECT","block3",0.72,7799,50,NA,5,"default","Political beliefs","No",46,"Yes","no comments.",1,"Female",0,"n/a",NA,"Dem",0.48,0,0,0,0,0,0,NA,1,"NV","['NV']",NA,NA
4105,"default","the minimum wage is too low","M","block1","M-N-John.png","critical","list2","list2_1","list2_S","Ken doesn't know that","John","liberal",0.99,"know",5815,9,"N",1,"minimum_wage","S",0.58,"block2",0.99,0.57,0.58,0.57,0,0.99,23089,26,0.53,"California","New Mexico","INCORRECT","block3",0.72,6961,55,NA,6,"default","Political beliefs","No",46,"Yes","no comments.",1,"Female",0,"n/a",NA,"Dem",0.48,0,0,0,0,0,0,NA,1,"NV","['NV']",NA,NA
4105,"default","the rich are taxed too much","M","block1","M-S-Eric.png","MC","list2","list2_1","list2_S",NA,"Eric","conservative",0.01,NA,6704,10,"S",1,"taxes","S",0.58,"block2",0.99,0.59,0.6,0.58,0,0.99,23105,34,0.53,"Louisiana","Alaska","INCORRECT","block3",0.99,5662,53,NA,7,"default","Political beliefs","No",46,"Yes","no comments.",1,"Female",0,"n/a",NA,"Dem",0.48,0,0,0,0,0,0,NA,1,"NV","['NV']",NA,NA
4105,"default","U.S. presidential elections are held in November",NA,"block1","NA.png","O","list2","list2_1","list2_S",NA,NA,NA,0.98,NA,4889,11,NA,1,"elections","S",NA,NA,NA,NA,NA,NA,NA,NA,NA,NA,NA,NA,NA,NA,NA,NA,NA,NA,NA,8,"default","Political beliefs","No",46,"Yes","no comments.",1,"Female",0,"n/a",NA,"Dem",0.48,0,0,0,0,0,0,NA,1,"NV","['NV']",NA,NA
4105,"default","it is too easy to buy guns","F","block1","F-N-Anna.png","critical","list2","list2_1","list2_S","Owen didn't acknowledge","Anna","liberal",0.99,"acknowledge",4881,12,"N",1,"gun_laws","S",0.51,"block2",0.98,0.52,0.53,0.49,0.99,0.99,22689,25,0.49,"Maryland","Ohio","CORRECT","block3",0.74,5975,48,NA,9,"default","Political beliefs","No",46,"Yes","no comments.",1,"Female",0,"n/a",NA,"Dem",0.48,0,0,0,0,0,0,NA,1,"NV","['NV']",NA,NA
4105,"default","closing businesses during COVID was unnecessary","F","block1","F-N-Veronica.png","MC","list2","list2_1","list2_S",NA,"Veronica","conservative",0.99,NA,6959,13,"N",1,"lockdown","S",0.54,"block2",0.99,0.54,0.53,0.53,0.99,0.98,57327,21,0.55,"Illinois","Utah","CORRECT","block3",0.99,5893,60,NA,10,"default","Political beliefs","No",46,"Yes","no comments.",1,"Female",0,"n/a",NA,"Dem",0.48,0,0,0,0,0,0,NA,1,"NV","['NV']",NA,NA
4105,"default","Trump's policies improved the American economy","M","block1","M-N-Tim.png","critical","list2","list2_1","list2_S","Tony doesn't know that","Tim","conservative",0.01,"know",5160,14,"N",1,"Trump_economy","S",0.58,"block2",0.99,0.57,0.61,0.57,0.99,0.98,21530,30,0.51,"California","New Hampshire","CORRECT","block3",0.72,10993,59,NA,11,"default","Political beliefs","No",46,"Yes","no comments.",1,"Female",0,"n/a",NA,"Dem",0.48,0,0,0,0,0,0,NA,1,"NV","['NV']",NA,NA
4105,"default","the uprising at the Capitol was patriotic","M","block1","M-N-Daniel.png","critical","list2","list2_1","list2_S","Glenn didn't acknowledge","Daniel","conservative",0.01,"acknowledge",7213,15,"N",1,"capitol_uprising","S",0.62,"block2",0.57,0.63,0.62,0.63,0.99,0.58,22791,32,0.58,"Washington","New Jersey","CORRECT","block3",0.51,11094,42,NA,12,"default","Political beliefs","No",46,"Yes","no comments.",1,"Female",0,"n/a",NA,"Dem",0.48,0,0,0,0,0,0,NA,1,"NV","['NV']",NA,NA
4105,"default","mask mandates are unnecessary","F","block1","F-S-Sarah.png","critical","list2","list2_1","list2_S","Wendy isn't annoyed that","Sarah","conservative",0.49,"be_annoyed",6647,16,"S",1,"masks","S",0.56,"block2",0.98,0.57,0.58,0.57,0.99,0.99,21772,28,0.56,"Kentucky","Conneticut","CORRECT","block3",0.7,9707,58,NA,13,"default","Political beliefs","No",46,"Yes","no comments.",1,"Female",0,"n/a",NA,"Dem",0.48,0,0,0,0,0,0,NA,1,"NV","['NV']",NA,NA
4105,"default","Trump handled the pandemic well","F","block1","F-N-Helen.png","critical","list2","list2_1","list2_S","Danny didn't suggest that","Helen","conservative",0.01,"suggest",4401,17,"N",1,"Trump_pandemic","S",0.55,"block2",0.99,0.56,0.57,0.55,0,0.99,23099,24,0.51,"California","Hawaii","INCORRECT","block3",0.82,8753,47,NA,14,"default","Political beliefs","No",46,"Yes","no comments.",1,"Female",0,"n/a",NA,"Dem",0.48,0,0,0,0,0,0,NA,1,"NV","['NV']",NA,NA
4105,"default","COVID is an overhyped virus","M","block1","M-S-Jason.png","critical","list2","list2_1","list2_S","Mary doesn't see that","Jason","conservative",0.54,"see",5934,18,"S",1,"COVID","S",0.57,"block2",0.99,0.59,0.59,0.56,0,0.98,29165,23,0.49,"Kentucky","Minnesota","INCORRECT","block3",0.5,52628,38,NA,15,"default","Political beliefs","No",46,"Yes","no comments.",1,"Female",0,"n/a",NA,"Dem",0.48,0,0,0,0,0,0,NA,1,"NV","['NV']",NA,NA
4105,"default","the military is underfunded","F","block1","F-S-Kimberly.png","critical","list2","list2_1","list2_S","Emma isn't right that","Kimberly","conservative",0.98,"be_right",4039,19,"S",1,"military","S",0.65,"block2",0.99,0.62,0.6,0.65,0.01,0.98,23475,33,0.58,"Alabama","Rhode Island","INCORRECT","block3",0.58,6449,43,NA,16,"default","Political beliefs","No",46,"Yes","no comments.",1,"Female",0,"n/a",NA,"Dem",0.48,0,0,0,0,0,0,NA,1,"NV","['NV']",NA,NA
4299,"default","medicaid is underfunded","M","block1","M-N-Daniel.png","critical","list2","list2_2","list2_NS","Allison didn't admit that","Daniel","liberal",0.89,"admit",4913,4,"N",2,"medicaid","NS",0.67,"block2",0.83,0.61,0.1,0.85,0,0.14,19108,32,0.89,"Washington","Idaho","INCORRECT","block3",0.98,4503,56,NA,1,"default","How people judge peoples political views based on looks/where they are from.","No",36,"Yes","No other comments.",4,"Female",0,NA,NA,"Dem",0.07,0,0,0,0,0,0,NA,1,"OH","['CA', 'OH']",NA,NA
4299,"default","the capital of the US is in Ohio",NA,"block1","NA.png","O","list2","list2_2","list2_NS",NA,NA,NA,0,NA,4575,5,NA,2,"capital","NS",NA,NA,NA,NA,NA,NA,NA,NA,NA,NA,NA,NA,NA,NA,NA,NA,NA,NA,NA,2,"default","How people judge peoples political views based on looks/where they are from.","No",36,"Yes","No other comments.",4,"Female",0,NA,NA,"Dem",0.07,0,0,0,0,0,0,NA,1,"OH","['CA', 'OH']",NA,NA
4299,"default","COVID is an overhyped virus","F","block1","F-N-Anna.png","critical","list2","list2_2","list2_NS","Mary isn't right that","Anna","conservative",0.02,"be_right",5563,6,"N",2,"COVID","NS",0.31,"block2",0.64,0.59,0.89,0.63,1,0.41,30853,30,0.14,"Maryland","West Virginia","CORRECT","block3",0.02,12796,47,NA,3,"default","How people judge peoples political views based on looks/where they are from.","No",36,"Yes","No other comments.",4,"Female",0,NA,NA,"Dem",0.07,0,0,0,0,0,0,NA,1,"OH","['CA', 'OH']",NA,NA
4299,"default","U.S. presidential elections are held in November",NA,"block1","NA.png","O","list2","list2_2","list2_NS",NA,NA,NA,0.99,NA,3878,7,NA,2,"elections","NS",NA,NA,NA,NA,NA,NA,NA,NA,NA,NA,NA,NA,NA,NA,NA,NA,NA,NA,NA,4,"default","How people judge peoples political views based on looks/where they are from.","No",36,"Yes","No other comments.",4,"Female",0,NA,NA,"Dem",0.07,0,0,0,0,0,0,NA,1,"OH","['CA', 'OH']",NA,NA
4299,"default","the uprising at the Capitol was patriotic","M","block1","M-S-Joseph.png","critical","list2","list2_2","list2_NS","Glenn didn't say that","Joseph","conservative",0.01,"say",3878,8,"S",2,"capitol_uprising","NS",0.44,"block2",0.7,0.36,0.22,0.6,1,0.37,22004,35,0.08,"Mississippi","New Hampshire","CORRECT","block3",0.68,18021,46,NA,5,"default","How people judge peoples political views based on looks/where they are from.","No",36,"Yes","No other comments.",4,"Female",0,NA,NA,"Dem",0.07,0,0,0,0,0,0,NA,1,"OH","['CA', 'OH']",NA,NA
4299,"default","closing businesses during COVID was unnecessary","F","block1","F-S-Lily.png","MC","list2","list2_2","list2_NS",NA,"Lily","conservative",0.02,NA,4480,9,"S",2,"lockdown","NS",0.31,"block2",0.83,0.61,0.77,0.79,0,0.17,23757,27,0.18,"Missouri","Wisconsin","INCORRECT","block3",1,6306,44,NA,6,"default","How people judge peoples political views based on looks/where they are from.","No",36,"Yes","No other comments.",4,"Female",0,NA,NA,"Dem",0.07,0,0,0,0,0,0,NA,1,"OH","['CA', 'OH']",NA,NA
4299,"default","it is too hard to get an abortion","F","block1","F-N-Elizabeth.png","critical","list2","list2_2","list2_NS","Grace isn't right that","Elizabeth","liberal",0.89,"be_right",3757,10,"N",2,"abortion","NS",0.31,"block2",0.84,0.83,0.8,0.63,0,0.14,22502,31,0.69,"Colorado","Montana","INCORRECT","block3",0,22225,45,NA,7,"default","How people judge peoples political views based on looks/where they are from.","No",36,"Yes","No other comments.",4,"Female",0,NA,NA,"Dem",0.07,0,0,0,0,0,0,NA,1,"OH","['CA', 'OH']",NA,NA
4299,"default","the military is underfunded","F","block1","F-N-Michelle.png","critical","list2","list2_2","list2_NS","Emma doesn't think that","Michelle","conservative",0.03,"think",3765,11,"N",2,"military","NS",0.61,"block2",0.73,0.81,0.78,0.73,0,0.24,17960,33,0.09,"Pennsylvania","Minnesota","INCORRECT","block3",0.92,5399,50,NA,8,"default","How people judge peoples political views based on looks/where they are from.","No",36,"Yes","No other comments.",4,"Female",0,NA,NA,"Dem",0.07,0,0,0,0,0,0,NA,1,"OH","['CA', 'OH']",NA,NA
4299,"default","the rich are taxed too much","F","block1","F-N-Veronica.png","MC","list2","list2_2","list2_NS",NA,"Veronica","conservative",0.02,NA,3365,12,"N",2,"taxes","NS",0.6,"block2",0.88,0.79,0.88,0.7,0,0.13,35063,21,0.8,"Illinois","Vermont","INCORRECT","block3",1,7175,55,NA,9,"default","How people judge peoples political views based on looks/where they are from.","No",36,"Yes","No other comments.",4,"Female",0,NA,NA,"Dem",0.07,0,0,0,0,0,0,NA,1,"OH","['CA', 'OH']",NA,NA
4299,"default","the 2020 election was legitimate","M","block1","M-N-Tim.png","critical","list2","list2_2","list2_NS","Jen doesn't think that","Tim","liberal",1,"think",3125,13,"N",2,"2020_election","NS",0.82,"block2",0.84,0.67,0.22,0.69,0,0.14,97645,24,0.92,"California","Rhode Island","INCORRECT","block3",0.42,7129,61,NA,10,"default","How people judge peoples political views based on looks/where they are from.","No",36,"Yes","No other comments.",4,"Female",0,NA,NA,"Dem",0.07,0,0,0,0,0,0,NA,1,"OH","['CA', 'OH']",NA,NA
4299,"default","it is too easy to buy guns","F","block1","F-S-Sarah.png","critical","list2","list2_2","list2_NS","Owen didn't say that","Sarah","liberal",0.98,"say",5160,14,"S",2,"gun_laws","NS",0.52,"block2",0.34,0.42,0.72,0.36,0,0.73,24079,34,0.35,"Kentucky","New Mexico","INCORRECT","block3",0.2,8568,42,NA,11,"default","How people judge peoples political views based on looks/where they are from.","No",36,"Yes","No other comments.",4,"Female",0,NA,NA,"Dem",0.07,0,0,0,0,0,0,NA,1,"OH","['CA', 'OH']",NA,NA
4299,"default","Trump's policies improved the American economy","F","block1","F-S-Amy.png","critical","list2","list2_2","list2_NS","Tony didn't pretend that","Amy","conservative",0.03,"pretend",3811,15,"S",2,"Trump_economy","NS",0.37,"block2",0.6,0.38,0.67,0.58,1,0.47,30069,28,0.44,"Arkansas","North Dakota","CORRECT","block3",0.27,14195,60,NA,12,"default","How people judge peoples political views based on looks/where they are from.","No",36,"Yes","No other comments.",4,"Female",0,NA,NA,"Dem",0.07,0,0,0,0,0,0,NA,1,"OH","['CA', 'OH']",NA,NA
4299,"default","Trump handled the pandemic well","M","block1","M-S-Anthony.png","critical","list2","list2_2","list2_NS","Danny didn't acknowledge","Anthony","conservative",0.02,"acknowledge",3252,16,"S",2,"Trump_pandemic","NS",0.56,"block2",0.6,0.65,0.13,0.62,1,0.41,71678,29,0.25,"Tennessee","Kansas","CORRECT","block3",0.78,5425,52,NA,13,"default","How people judge peoples political views based on looks/where they are from.","No",36,"Yes","No other comments.",4,"Female",0,NA,NA,"Dem",0.07,0,0,0,0,0,0,NA,1,"OH","['CA', 'OH']",NA,NA
4299,"default","the minimum wage is too low","F","block1","F-S-Donna.png","critical","list2","list2_2","list2_NS","Ken didn't pretend that","Donna","liberal",0.98,"pretend",2666,17,"S",2,"minimum_wage","NS",0.41,"block2",0.35,0.36,0.61,0.31,0.98,0.63,47426,23,0.48,"Tennessee","Maine","CORRECT","block3",0.86,8620,59,NA,14,"default","How people judge peoples political views based on looks/where they are from.","No",36,"Yes","No other comments.",4,"Female",0,NA,NA,"Dem",0.07,0,0,0,0,0,0,NA,1,"OH","['CA', 'OH']",NA,NA
4299,"default","immigrants support the economy","M","block1","M-S-Michael.png","critical","list2","list2_2","list2_NS","Ben didn't acknowledge","Michael","liberal",0.98,"acknowledge",4252,18,"S",2,"immigrants","NS",0.6,"block2",0.41,0.26,0.17,0.37,0.98,0.58,31690,22,0.32,"Georgia","Illinois","CORRECT","block3",0.99,4570,48,NA,15,"default","How people judge peoples political views based on looks/where they are from.","No",36,"Yes","No other comments.",4,"Female",0,NA,NA,"Dem",0.07,0,0,0,0,0,0,NA,1,"OH","['CA', 'OH']",NA,NA
4299,"default","mask mandates are unnecessary","M","block1","M-N-John.png","critical","list2","list2_2","list2_NS","Wendy didn't admit that","John","conservative",0.01,"admit",2840,19,"N",2,"masks","NS",0.63,"block2",0.73,0.36,0.12,0.33,0,0.28,18964,36,0.37,"California","South Dakota","INCORRECT","block3",0.72,27858,38,NA,16,"default","How people judge peoples political views based on looks/where they are from.","No",36,"Yes","No other comments.",4,"Female",0,NA,NA,"Dem",0.07,0,0,0,0,0,0,NA,1,"OH","['CA', 'OH']",NA,NA
4088,"default","the rich are taxed too little","F","block1","F-S-Lily.png","MC","list1","list1_1","list1_S",NA,"Lily","liberal",0.66,NA,5527,4,"S",1,"taxes","S",0.38,"block2",0.74,0.51,0.89,0.64,0.04,0.17,16431,34,0.8,"Missouri","Delaware","INCORRECT","block3",0.93,17733,52,NA,1,"default","politics and views","No",46,"Yes",NA,3,"Male",4,"english",NA,"Rep",0.69,0,0,0,0,0,0,NA,1,"MN","['MN']",NA,NA
4088,"default","Trump's policies damaged the American economy","F","block1","F-N-Anna.png","critical","list1","list1_1","list1_S","Tony didn't acknowledge","Anna","liberal",0.31,"acknowledge",4104,5,"N",1,"Trump_economy","S",0.54,"block2",0.74,0.77,0.97,0.63,0.95,0.18,15823,32,0.86,"Maryland","Ohio","CORRECT","block3",0.94,5278,47,NA,2,"default","politics and views","No",46,"Yes",NA,3,"Male",4,"english",NA,"Rep",0.69,0,0,0,0,0,0,NA,1,"MN","['MN']",NA,NA
4088,"default","the minimum wage is too high","F","block1","F-N-Lisa.png","critical","list1","list1_1","list1_S","Ken didn't acknowledge","Lisa","conservative",0.19,"acknowledge",3410,6,"N",1,"minimum_wage","S",0.58,"block2",0.52,0.57,0.81,0.63,0.97,0.55,20642,25,0.08,"Oregon","Kansas","CORRECT","block3",0.11,10063,40,NA,3,"default","politics and views","No",46,"Yes",NA,3,"Male",4,"english",NA,"Rep",0.69,0,0,0,0,0,0,NA,1,"MN","['MN']",NA,NA
4088,"default","the 2020 election was rigged","F","block1","F-S-Sarah.png","critical","list1","list1_1","list1_S","Jen doesn't think that","Sarah","conservative",0.03,"think",3362,7,"S",1,"2020_election","S",0.43,"block2",0.39,0.55,0.77,0.52,0.01,0.61,20423,28,0.09,"Kentucky","Hawaii","INCORRECT","block3",0.02,5680,61,NA,4,"default","politics and views","No",46,"Yes",NA,3,"Male",4,"english",NA,"Rep",0.69,0,0,0,0,0,0,NA,1,"MN","['MN']",NA,NA
4088,"default","medicaid is overfunded","M","block1","M-S-Anthony.png","critical","list1","list1_1","list1_S","Allison isn't right that","Anthony","conservative",0.06,"be_right",4249,8,"S",1,"medicaid","S",0.58,"block2",0.2,0.46,0.01,0.57,0.98,0.77,20393,30,0.22,"Tennessee","Florida","CORRECT","block3",0.06,8103,59,NA,5,"default","politics and views","No",46,"Yes",NA,3,"Male",4,"english",NA,"Rep",0.69,0,0,0,0,0,0,NA,1,"MN","['MN']",NA,NA
4088,"default","Trump handled the pandemic badly","M","block1","M-N-John.png","critical","list1","list1_1","list1_S","Danny didn't pretend that","John","liberal",0.63,"pretend",4686,9,"N",1,"Trump_pandemic","S",0.62,"block2",0.76,0.47,0.1,0.58,0.04,0.24,21449,35,0.67,"California","New Hampshire","INCORRECT","block3",0.27,6797,42,NA,6,"default","politics and views","No",46,"Yes",NA,3,"Male",4,"english",NA,"Rep",0.69,0,0,0,0,0,0,NA,1,"MN","['MN']",NA,NA
4088,"default","it is too difficult to buy guns","M","block1","M-N-Tim.png","critical","list1","list1_1","list1_S","Owen didn't hear that","Tim","conservative",0.12,"hear",3478,10,"N",1,"gun_laws","S",0.54,"block2",0.86,0.59,0.06,0.44,0.02,0.15,18065,26,0.6,"California","Minnesota","INCORRECT","block3",0.25,11988,45,NA,7,"default","politics and views","No",46,"Yes",NA,3,"Male",4,"english",NA,"Rep",0.69,0,0,0,0,0,0,NA,1,"MN","['MN']",NA,NA
4088,"default","closing businesses during COVID was necessary","M","block1","M-N-Jacob.png","MC","list1","list1_1","list1_S",NA,"Jacob","liberal",0.51,NA,3630,11,"N",1,"lockdown","S",0.62,"block2",0.09,0.48,0.02,0.56,0.07,0.92,22327,36,0.43,"Massachusetts","West Virginia","INCORRECT","block3",0.76,6420,44,NA,8,"default","politics and views","No",46,"Yes",NA,3,"Male",4,"english",NA,"Rep",0.69,0,0,0,0,0,0,NA,1,"MN","['MN']",NA,NA
4088,"default","the capital of the US is in Ohio",NA,"block1","NA.png","O","list1","list1_1","list1_S",NA,NA,NA,0.02,NA,3934,12,NA,1,"capital","S",NA,NA,NA,NA,NA,NA,NA,NA,NA,NA,NA,NA,NA,NA,NA,NA,NA,NA,NA,9,"default","politics and views","No",46,"Yes",NA,3,"Male",4,"english",NA,"Rep",0.69,0,0,0,0,0,0,NA,1,"MN","['MN']",NA,NA
4088,"default","it is too easy to get an abortion","F","block1","F-S-Kimberly.png","critical","list1","list1_1","list1_S","Grace isn't annoyed that","Kimberly","conservative",0.8,"be_annoyed",3839,13,"S",1,"abortion","S",0.48,"block2",0.45,0.49,0.92,0.54,0.02,0.49,27430,27,0.68,"Alabama","Vermont","INCORRECT","block3",0.96,12515,56,NA,10,"default","politics and views","No",46,"Yes",NA,3,"Male",4,"english",NA,"Rep",0.69,0,0,0,0,0,0,NA,1,"MN","['MN']",NA,NA
4088,"default","U.S. presidential elections are held in November",NA,"block1","NA.png","O","list1","list1_1","list1_S",NA,NA,NA,0.99,NA,4703,14,NA,1,"elections","S",NA,NA,NA,NA,NA,NA,NA,NA,NA,NA,NA,NA,NA,NA,NA,NA,NA,NA,NA,11,"default","politics and views","No",46,"Yes",NA,3,"Male",4,"english",NA,"Rep",0.69,0,0,0,0,0,0,NA,1,"MN","['MN']",NA,NA
4088,"default","COVID is a dangerous virus","F","block1","F-S-Donna.png","critical","list1","list1_1","list1_S","Mary isn't annoyed that","Donna","liberal",0.81,"be_annoyed",2900,15,"S",1,"COVID","S",0.37,"block2",0.82,0.58,0.69,0.6,0.98,0.23,28488,21,0.85,"Tennessee","Montana","CORRECT","block3",0.87,9851,53,NA,12,"default","politics and views","No",46,"Yes",NA,3,"Male",4,"english",NA,"Rep",0.69,0,0,0,0,0,0,NA,1,"MN","['MN']",NA,NA
4088,"default","the military is overfunded","M","block1","M-S-Michael.png","critical","list1","list1_1","list1_S","Emma doesn't think that","Michael","liberal",0.17,"think",2862,16,"S",1,"military","S",0.57,"block2",0.1,0.42,0.11,0.63,0.02,0.89,17686,33,0.17,"Georgia","Idaho","INCORRECT","block3",0.55,14599,39,NA,13,"default","politics and views","No",46,"Yes",NA,3,"Male",4,"english",NA,"Rep",0.69,0,0,0,0,0,0,NA,1,"MN","['MN']",NA,NA
4088,"default","mask mandates are necessary","M","block1","M-S-Jason.png","critical","list1","list1_1","list1_S","Wendy isn't right that","Jason","liberal",0.3,"be_right",3566,17,"S",1,"masks","S",0.58,"block2",0.4,0.55,0.04,0.52,0.97,0.54,34602,23,0.29,"Kentucky","Wyoming","CORRECT","block3",0.82,11639,49,NA,14,"default","politics and views","No",46,"Yes",NA,3,"Male",4,"english",NA,"Rep",0.69,0,0,0,0,0,0,NA,1,"MN","['MN']",NA,NA
4088,"default","the uprising at the Capitol was domestic terrorism","F","block1","F-N-Helen.png","critical","list1","list1_1","list1_S","Glenn didn't hear that","Helen","liberal",0.87,"hear",3649,18,"N",1,"capitol_uprising","S",0.64,"block2",0.95,0.5,0.84,0.62,0.99,0.09,23289,24,0.88,"California","Alaska","CORRECT","block3",0.83,6051,48,NA,15,"default","politics and views","No",46,"Yes",NA,3,"Male",4,"english",NA,"Rep",0.69,0,0,0,0,0,0,NA,1,"MN","['MN']",NA,NA
4088,"default","immigrants steal jobs from Americans","M","block1","M-N-James.png","critical","list1","list1_1","list1_S","Ben didn't pretend that","James","conservative",0.35,"pretend",2894,19,"N",1,"immigrants","S",0.48,"block2",0.21,0.5,0.07,0.57,0.02,0.8,21954,31,0.65,"New York","Maine","INCORRECT","block3",0.68,15745,38,NA,16,"default","politics and views","No",46,"Yes",NA,3,"Male",4,"english",NA,"Rep",0.69,0,0,0,0,0,0,NA,1,"MN","['MN']",NA,NA
4116,"default","Trump's policies damaged the American economy","M","block1","M-S-Anthony.png","critical","list1","list1_1","list1_NS","Tony doesn't see that","Anthony","liberal",0.17,"see",3634,4,"S",1,"Trump_economy","NS",0.73,"block2",0.29,0.62,0.2,0.61,1,0.72,11508,31,0.19,"Tennessee","Nevada","CORRECT","block3",0.88,5403,56,NA,1,"default","Political views and perceptions based on race","Yes",26,"Yes",NA,2,"Male",2,NA,NA,"Rep",0.61,0,0,0,0,0,0,NA,1,"TX","['TX']","Southern",NA
4116,"default","the minimum wage is too high","M","block1","M-S-Michael.png","critical","list1","list1_1","list1_NS","Ken doesn't see that","Michael","conservative",0.49,"see",3487,5,"S",1,"minimum_wage","NS",0.71,"block2",0.35,0.45,0.18,0.59,1,0.66,20015,21,0.6,"Georgia","Hawaii","CORRECT","block3",0.8,6383,43,NA,2,"default","Political views and perceptions based on race","Yes",26,"Yes",NA,2,"Male",2,NA,NA,"Rep",0.61,0,0,0,0,0,0,NA,1,"TX","['TX']","Southern",NA
4116,"default","the capital of the US is in Ohio",NA,"block1","NA.png","O","list1","list1_1","list1_NS",NA,NA,NA,0,NA,2372,6,NA,1,"capital","NS",NA,NA,NA,NA,NA,NA,NA,NA,NA,NA,NA,NA,NA,NA,NA,NA,NA,NA,NA,3,"default","Political views and perceptions based on race","Yes",26,"Yes",NA,2,"Male",2,NA,NA,"Rep",0.61,0,0,0,0,0,0,NA,1,"TX","['TX']","Southern",NA
4116,"default","COVID is a dangerous virus","M","block1","M-N-Daniel.png","critical","list1","list1_1","list1_NS","Mary didn't suggest that","Daniel","liberal",0.66,"suggest",2560,7,"N",1,"COVID","NS",0.73,"block2",0.78,0.65,0.19,0.65,0,0.21,14486,22,0.77,"Washington","Conneticut","INCORRECT","block3",0.86,4706,53,NA,4,"default","Political views and perceptions based on race","Yes",26,"Yes",NA,2,"Male",2,NA,NA,"Rep",0.61,0,0,0,0,0,0,NA,1,"TX","['TX']","Southern",NA
4116,"default","the uprising at the Capitol was domestic terrorism","M","block1","M-S-Joseph.png","critical","list1","list1_1","list1_NS","Glenn didn't acknowledge","Joseph","liberal",0.5,"acknowledge",3302,8,"S",1,"capitol_uprising","NS",0.86,"block2",0.61,0.69,0.08,0.61,1,0.38,15308,29,0.33,"Mississippi","Illinois","CORRECT","block3",0.84,5716,45,NA,5,"default","Political views and perceptions based on race","Yes",26,"Yes",NA,2,"Male",2,NA,NA,"Rep",0.61,0,0,0,0,0,0,NA,1,"TX","['TX']","Southern",NA
4116,"default","medicaid is overfunded","F","block1","F-N-Anna.png","critical","list1","list1_1","list1_NS","Allison doesn't know that","Anna","conservative",0.34,"know",3361,9,"N",1,"medicaid","NS",0.41,"block2",0.76,0.7,0.85,0.67,0,0.27,13631,30,0.12,"Maryland","Idaho","INCORRECT","block3",0.88,5224,41,NA,6,"default","Political views and perceptions based on race","Yes",26,"Yes",NA,2,"Male",2,NA,NA,"Rep",0.61,0,0,0,0,0,0,NA,1,"TX","['TX']","Southern",NA
4116,"default","the 2020 election was rigged","M","block1","M-N-Tim.png","critical","list1","list1_1","list1_NS","Jen didn't pretend that","Tim","conservative",0,"pretend",2455,10,"N",1,"2020_election","NS",0.43,"block2",0.77,0.47,0.09,0.52,0,0.2,12437,33,0.16,"California","Rhode Island","INCORRECT","block3",0.18,6435,60,NA,7,"default","Political views and perceptions based on race","Yes",26,"Yes",NA,2,"Male",2,NA,NA,"Rep",0.61,0,0,0,0,0,0,NA,1,"TX","['TX']","Southern",NA
4116,"default","mask mandates are necessary","F","block1","F-N-Michelle.png","critical","list1","list1_1","list1_NS","Wendy doesn't know that","Michelle","liberal",0.15,"know",2977,11,"N",1,"masks","NS",0.74,"block2",0.5,0.6,0.95,0.55,1,0.49,19967,23,0.7,"Pennsylvania","Minnesota","CORRECT","block3",1,14360,38,NA,8,"default","Political views and perceptions based on race","Yes",26,"Yes",NA,2,"Male",2,NA,NA,"Rep",0.61,0,0,0,0,0,0,NA,1,"TX","['TX']","Southern",NA
4116,"default","immigrants steal jobs from Americans","F","block1","F-S-Sarah.png","critical","list1","list1_1","list1_NS","Ben didn't say that","Sarah","conservative",0.22,"say",2585,12,"S",1,"immigrants","NS",0.59,"block2",0.33,0.47,0.8,0.53,0,0.68,12397,24,0.67,"Kentucky","New Hampshire","INCORRECT","block3",0.89,4910,42,NA,9,"default","Political views and perceptions based on race","Yes",26,"Yes",NA,2,"Male",2,NA,NA,"Rep",0.61,0,0,0,0,0,0,NA,1,"TX","['TX']","Southern",NA
4116,"default","U.S. presidential elections are held in November",NA,"block1","NA.png","O","list1","list1_1","list1_NS",NA,NA,NA,1,NA,3235,13,NA,1,"elections","NS",NA,NA,NA,NA,NA,NA,NA,NA,NA,NA,NA,NA,NA,NA,NA,NA,NA,NA,NA,10,"default","Political views and perceptions based on race","Yes",26,"Yes",NA,2,"Male",2,NA,NA,"Rep",0.61,0,0,0,0,0,0,NA,1,"TX","['TX']","Southern",NA
4116,"default","the military is overfunded","F","block1","F-N-Lisa.png","critical","list1","list1_1","list1_NS","Emma didn't pretend that","Lisa","liberal",0.84,"pretend",3265,14,"N",1,"military","NS",0.87,"block2",0.91,0.67,0.91,0.69,0,0.21,11438,36,0.85,"Oregon","Delaware","INCORRECT","block3",0.86,5866,39,NA,11,"default","Political views and perceptions based on race","Yes",26,"Yes",NA,2,"Male",2,NA,NA,"Rep",0.61,0,0,0,0,0,0,NA,1,"TX","['TX']","Southern",NA
4116,"default","closing businesses during COVID was necessary","M","block1","M-S-Jay.png","MC","list1","list1_1","list1_NS",NA,"Jay","liberal",0.58,NA,4045,15,"S",1,"lockdown","NS",0.46,"block2",0.66,0.78,0.05,0.78,0,0.41,19585,25,0.75,"Virginia","Florida","INCORRECT","block3",1,3358,48,NA,12,"default","Political views and perceptions based on race","Yes",26,"Yes",NA,2,"Male",2,NA,NA,"Rep",0.61,0,0,0,0,0,0,NA,1,"TX","['TX']","Southern",NA
4116,"default","it is too difficult to buy guns","F","block1","F-S-Donna.png","critical","list1","list1_1","list1_NS","Owen didn't acknowledge","Donna","conservative",0.48,"acknowledge",3860,16,"S",1,"gun_laws","NS",0.78,"block2",0.27,0.54,0.9,0.58,1,0.69,10370,35,0.64,"Tennessee","New Mexico","CORRECT","block3",0.8,3781,52,NA,13,"default","Political views and perceptions based on race","Yes",26,"Yes",NA,2,"Male",2,NA,NA,"Rep",0.61,0,0,0,0,0,0,NA,1,"TX","['TX']","Southern",NA
4116,"default","the rich are taxed too little","M","block1","M-N-Jacob.png","MC","list1","list1_1","list1_NS",NA,"Jacob","liberal",0.74,NA,2303,17,"N",1,"taxes","NS",0.9,"block2",0.71,0.58,0.06,0.69,1,0.28,11488,34,0.88,"Massachusetts","New Jersey","CORRECT","block3",1,6128,44,NA,14,"default","Political views and perceptions based on race","Yes",26,"Yes",NA,2,"Male",2,NA,NA,"Rep",0.61,0,0,0,0,0,0,NA,1,"TX","['TX']","Southern",NA
4116,"default","Trump handled the pandemic badly","F","block1","F-S-Kimberly.png","critical","list1","list1_1","list1_NS","Danny didn't say that","Kimberly","liberal",0.21,"say",3406,18,"S",1,"Trump_pandemic","NS",0.61,"block2",0.49,0.78,0.89,0.67,1,0.48,17286,32,0.16,"Alabama","Wisconsin","CORRECT","block3",0.49,5518,40,NA,15,"default","Political views and perceptions based on race","Yes",26,"Yes",NA,2,"Male",2,NA,NA,"Rep",0.61,0,0,0,0,0,0,NA,1,"TX","['TX']","Southern",NA
4116,"default","it is too easy to get an abortion","M","block1","M-N-John.png","critical","list1","list1_1","list1_NS","Grace didn't suggest that","John","conservative",0.23,"suggest",3310,19,"N",1,"abortion","NS",0.57,"block2",0.87,0.67,0.04,0.62,0,0.12,16077,28,0.14,"California","West Virginia","INCORRECT","block3",0.76,6074,51,NA,16,"default","Political views and perceptions based on race","Yes",26,"Yes",NA,2,"Male",2,NA,NA,"Rep",0.61,0,0,0,0,0,0,NA,1,"TX","['TX']","Southern",NA
4348,"default","the 2020 election was legitimate","F","block1","F-S-Donna.png","critical","list2","list2_2","list2_S","Jen didn't hear that","Donna","liberal",0.98,"hear",8896,4,"S",2,"2020_election","S",0.4,"block2",0.34,0.58,0.84,0.52,0,0.62,54671,31,0.43,"Tennessee","Montana","INCORRECT","block3",0.98,20031,40,NA,1,"default","How we perceive people in relation to political views.","No",47,"Yes","Interesting experiment, thank you.",1,"Female",1,"English",NA,"Dem",0,0,0,0,0,0,0,NA,1,"GA","['GA', 'OH']","none",NA
4348,"default","immigrants support the economy","F","block1","F-N-Helen.png","critical","list2","list2_2","list2_S","Ben didn't admit that","Helen","liberal",0.8,"admit",5316,5,"N",2,"immigrants","S",0.86,"block2",1,0.98,0.93,0.9,0,0,35077,23,1,"California","Wyoming","INCORRECT","block3",0.97,7392,50,NA,2,"default","How we perceive people in relation to political views.","No",47,"Yes","Interesting experiment, thank you.",1,"Female",1,"English",NA,"Dem",0,0,0,0,0,0,0,NA,1,"GA","['GA', 'OH']","none",NA
4348,"default","closing businesses during COVID was unnecessary","F","block1","F-N-Rachel.png","MC","list2","list2_2","list2_S",NA,"Rachel","conservative",0,NA,5143,6,"N",2,"lockdown","S",0.84,"block2",0.99,0.97,0.8,0.77,0.98,0.02,24406,32,0,"Michigan","Conneticut","CORRECT","block3",0.97,12231,57,NA,3,"default","How we perceive people in relation to political views.","No",47,"Yes","Interesting experiment, thank you.",1,"Female",1,"English",NA,"Dem",0,0,0,0,0,0,0,NA,1,"GA","['GA', 'OH']","none",NA
4348,"default","the rich are taxed too much","F","block1","F-S-Lily.png","MC","list2","list2_2","list2_S",NA,"Lily","conservative",0,NA,5569,7,"S",2,"taxes","S",0.91,"block2",0.83,1,0.95,0.89,0,0.14,49185,36,0,"Missouri","Kansas","INCORRECT","block3",0.98,12264,54,NA,4,"default","How we perceive people in relation to political views.","No",47,"Yes","Interesting experiment, thank you.",1,"Female",1,"English",NA,"Dem",0,0,0,0,0,0,0,NA,1,"GA","['GA', 'OH']","none",NA
4348,"default","the minimum wage is too low","M","block1","M-N-Tim.png","critical","list2","list2_2","list2_S","Ken doesn't know that","Tim","liberal",0.98,"know",3839,8,"N",2,"minimum_wage","S",0.59,"block2",0.99,0.82,0.2,0.73,0.99,0.03,30917,27,1,"California","Illinois","CORRECT","block3",0.99,16727,41,NA,5,"default","How we perceive people in relation to political views.","No",47,"Yes","Interesting experiment, thank you.",1,"Female",1,"English",NA,"Dem",0,0,0,0,0,0,0,NA,1,"GA","['GA', 'OH']","none",NA
4348,"default","the capital of the US is in Ohio",NA,"block1","NA.png","O","list2","list2_2","list2_S",NA,NA,NA,0.02,NA,7815,9,NA,2,"capital","S",NA,NA,NA,NA,NA,NA,NA,NA,NA,NA,NA,NA,NA,NA,NA,NA,NA,NA,NA,6,"default","How we perceive people in relation to political views.","No",47,"Yes","Interesting experiment, thank you.",1,"Female",1,"English",NA,"Dem",0,0,0,0,0,0,0,NA,1,"GA","['GA', 'OH']","none",NA
4348,"default","Trump's policies improved the American economy","M","block1","M-N-James.png","critical","list2","list2_2","list2_S","Tony doesn't know that","James","conservative",0,"know",5293,10,"N",2,"Trump_economy","S",0.8,"block2",0.99,0.94,0.07,0.86,0.01,0,26814,35,0,"New York","New Hampshire","INCORRECT","block3",0.99,11351,39,NA,7,"default","How we perceive people in relation to political views.","No",47,"Yes","Interesting experiment, thank you.",1,"Female",1,"English",NA,"Dem",0,0,0,0,0,0,0,NA,1,"GA","['GA', 'OH']","none",NA
4348,"default","U.S. presidential elections are held in November",NA,"block1","NA.png","O","list2","list2_2","list2_S",NA,NA,NA,0.98,NA,6658,11,NA,2,"elections","S",NA,NA,NA,NA,NA,NA,NA,NA,NA,NA,NA,NA,NA,NA,NA,NA,NA,NA,NA,8,"default","How we perceive people in relation to political views.","No",47,"Yes","Interesting experiment, thank you.",1,"Female",1,"English",NA,"Dem",0,0,0,0,0,0,0,NA,1,"GA","['GA', 'OH']","none",NA
4348,"default","COVID is an overhyped virus","M","block1","M-S-Anthony.png","critical","list2","list2_2","list2_S","Mary didn't say that","Anthony","conservative",0,"say",4519,12,"S",2,"COVID","S",0.79,"block2",0.56,0.71,0.01,0.73,1,0.48,33408,24,0.59,"Tennessee","North Dakota","CORRECT","block3",0.17,11854,61,NA,9,"default","How we perceive people in relation to political views.","No",47,"Yes","Interesting experiment, thank you.",1,"Female",1,"English",NA,"Dem",0,0,0,0,0,0,0,NA,1,"GA","['GA', 'OH']","none",NA
4348,"default","mask mandates are unnecessary","F","block1","F-S-Sarah.png","critical","list2","list2_2","list2_S","Wendy didn't confess that","Sarah","conservative",0,"confess",3760,13,"S",2,"masks","S",0.66,"block2",0.6,0.95,0.9,0.81,0.98,0.45,29128,26,0.02,"Kentucky","Maine","CORRECT","block3",0.77,18415,43,NA,10,"default","How we perceive people in relation to political views.","No",47,"Yes","Interesting experiment, thank you.",1,"Female",1,"English",NA,"Dem",0,0,0,0,0,0,0,NA,1,"GA","['GA', 'OH']","none",NA
4348,"default","the uprising at the Capitol was patriotic","F","block1","F-N-Anna.png","critical","list2","list2_2","list2_S","Glenn doesn't think that","Anna","conservative",0,"think",4287,14,"N",2,"capitol_uprising","S",0.83,"block2",0.84,0.82,0.76,0.75,0,0.13,36159,25,0.02,"Maryland","Wisconsin","INCORRECT","block3",0.79,21759,45,NA,11,"default","How we perceive people in relation to political views.","No",47,"Yes","Interesting experiment, thank you.",1,"Female",1,"English",NA,"Dem",0,0,0,0,0,0,0,NA,1,"GA","['GA', 'OH']","none",NA
4348,"default","Trump handled the pandemic well","F","block1","F-N-Elizabeth.png","critical","list2","list2_2","list2_S","Danny didn't admit that","Elizabeth","conservative",0,"admit",3567,15,"N",2,"Trump_pandemic","S",0.78,"block2",0.98,0.99,0.88,0.86,0.99,0.02,32471,22,0.02,"Colorado","New Jersey","CORRECT","block3",0.99,14351,48,NA,12,"default","How we perceive people in relation to political views.","No",47,"Yes","Interesting experiment, thank you.",1,"Female",1,"English",NA,"Dem",0,0,0,0,0,0,0,NA,1,"GA","['GA', 'OH']","none",NA
4348,"default","it is too easy to buy guns","M","block1","M-N-John.png","critical","list2","list2_2","list2_S","Owen doesn't think that","John","liberal",0.98,"think",4127,16,"N",2,"gun_laws","S",0.77,"block2",0.91,0.87,0.02,0.85,0.97,0.1,26752,33,0.99,"California","Utah","CORRECT","block3",0.07,18471,53,NA,13,"default","How we perceive people in relation to political views.","No",47,"Yes","Interesting experiment, thank you.",1,"Female",1,"English",NA,"Dem",0,0,0,0,0,0,0,NA,1,"GA","['GA', 'OH']","none",NA
4348,"default","medicaid is underfunded","F","block1","F-S-Amy.png","critical","list2","list2_2","list2_S","Allison didn't confess that","Amy","liberal",1,"confess",5583,17,"S",2,"medicaid","S",0.9,"block2",0.55,0.94,0.79,0.81,0,0.46,45606,34,0.88,"Arkansas","West Virginia","INCORRECT","block3",0.96,17064,51,NA,14,"default","How we perceive people in relation to political views.","No",47,"Yes","Interesting experiment, thank you.",1,"Female",1,"English",NA,"Dem",0,0,0,0,0,0,0,NA,1,"GA","['GA', 'OH']","none",NA
4348,"default","it is too hard to get an abortion","M","block1","M-S-Ryan.png","critical","list2","list2_2","list2_S","Grace didn't say that","Ryan","liberal",0.89,"say",5343,18,"S",2,"abortion","S",0.74,"block2",0.07,0.69,0.04,0.67,0.02,0.92,33584,28,0.02,"Arkansas","Nevada","INCORRECT","block3",0.21,16439,55,NA,15,"default","How we perceive people in relation to political views.","No",47,"Yes","Interesting experiment, thank you.",1,"Female",1,"English",NA,"Dem",0,0,0,0,0,0,0,NA,1,"GA","['GA', 'OH']","none",NA
4348,"default","the military is underfunded","M","block1","M-S-Jason.png","critical","list2","list2_2","list2_S","Emma didn't hear that","Jason","conservative",0,"hear",3639,19,"S",2,"military","S",0.6,"block2",0.79,0.85,0.23,0.78,0.01,0.23,56446,21,0.15,"Kentucky","Idaho","INCORRECT","block3",0.97,24981,52,NA,16,"default","How we perceive people in relation to political views.","No",47,"Yes","Interesting experiment, thank you.",1,"Female",1,"English",NA,"Dem",0,0,0,0,0,0,0,NA,1,"GA","['GA', 'OH']","none",NA
4244,"default","medicaid is overfunded","F","block1","F-S-Donna.png","critical","list1","list1_1","list1_S","Allison didn't confess that","Donna","conservative",0.31,"confess",8635,4,"S",1,"medicaid","S",0.57,"block2",0.3,0.7,0.79,0.66,1,0.63,25302,26,0.28,"Tennessee","South Dakota","CORRECT","block3",0.52,9312,43,NA,1,"default","To better understand how people view political ideology through demographics.","No",36,"Yes",NA,3,"Male",5,NA,NA,"Lib",0.49,0,0,0,0,0,0,NA,1,"NM","['CA', 'HI', 'KY', 'ME', 'MA', 'NM', 'NY']",NA,NA
4244,"default","the minimum wage is too high","M","block1","M-N-Daniel.png","critical","list1","list1_1","list1_S","Ken doesn't think that","Daniel","conservative",0.08,"think",3360,5,"N",1,"minimum_wage","S",0.75,"block2",0.59,0.65,0.25,0.59,0,0.34,41856,23,0.27,"Washington","Minnesota","INCORRECT","block3",0.18,10214,45,NA,2,"default","To better understand how people view political ideology through demographics.","No",36,"Yes",NA,3,"Male",5,NA,NA,"Lib",0.49,0,0,0,0,0,0,NA,1,"NM","['CA', 'HI', 'KY', 'ME', 'MA', 'NM', 'NY']",NA,NA
4244,"default","the rich are taxed too little","M","block1","M-S-Jay.png","MC","list1","list1_1","list1_S",NA,"Jay","liberal",0.76,NA,2782,6,"S",1,"taxes","S",0.61,"block2",0.47,0.58,0.2,0.64,0,0.51,19419,34,0.48,"Virginia","Wyoming","INCORRECT","block3",1,8797,39,NA,3,"default","To better understand how people view political ideology through demographics.","No",36,"Yes",NA,3,"Male",5,NA,NA,"Lib",0.49,0,0,0,0,0,0,NA,1,"NM","['CA', 'HI', 'KY', 'ME', 'MA', 'NM', 'NY']",NA,NA
4244,"default","the military is overfunded","M","block1","M-S-Anthony.png","critical","list1","list1_1","list1_S","Emma doesn't know that","Anthony","liberal",0.85,"know",4437,7,"S",1,"military","S",0.73,"block2",0.12,0.7,0.13,0.64,0,0.83,19762,32,0.1,"Tennessee","Montana","INCORRECT","block3",0.29,6510,55,NA,4,"default","To better understand how people view political ideology through demographics.","No",36,"Yes",NA,3,"Male",5,NA,NA,"Lib",0.49,0,0,0,0,0,0,NA,1,"NM","['CA', 'HI', 'KY', 'ME', 'MA', 'NM', 'NY']",NA,NA
4244,"default","it is too difficult to buy guns","M","block1","M-N-James.png","critical","list1","list1_1","list1_S","Owen didn't admit that","James","conservative",0.06,"admit",6317,8,"N",1,"gun_laws","S",0.86,"block2",0.47,0.59,0.14,0.74,0,0.47,21301,22,0.22,"New York","New Jersey","INCORRECT","block3",0.12,5638,50,NA,5,"default","To better understand how people view political ideology through demographics.","No",36,"Yes",NA,3,"Male",5,NA,NA,"Lib",0.49,0,0,0,0,0,0,NA,1,"NM","['CA', 'HI', 'KY', 'ME', 'MA', 'NM', 'NY']",NA,NA
4244,"default","it is too easy to get an abortion","M","block1","M-S-Michael.png","critical","list1","list1_1","list1_S","Grace didn't pretend that","Michael","conservative",0.01,"pretend",7666,9,"S",1,"abortion","S",0.74,"block2",0.17,0.61,0.12,0.67,1,0.83,17602,29,0.55,"Georgia","Delaware","CORRECT","block3",0.5,28448,38,NA,6,"default","To better understand how people view political ideology through demographics.","No",36,"Yes",NA,3,"Male",5,NA,NA,"Lib",0.49,0,0,0,0,0,0,NA,1,"NM","['CA', 'HI', 'KY', 'ME', 'MA', 'NM', 'NY']",NA,NA
4244,"default","immigrants steal jobs from Americans","F","block1","F-N-Elizabeth.png","critical","list1","list1_1","list1_S","Ben doesn't see that","Elizabeth","conservative",0.05,"see",3609,10,"N",1,"immigrants","S",0.6,"block2",0.69,0.72,0.68,0.7,1,0.25,26345,27,0.08,"Colorado","Alaska","CORRECT","block3",0.9,6309,57,NA,7,"default","To better understand how people view political ideology through demographics.","No",36,"Yes",NA,3,"Male",5,NA,NA,"Lib",0.49,0,0,0,0,0,0,NA,1,"NM","['CA', 'HI', 'KY', 'ME', 'MA', 'NM', 'NY']",NA,NA
4244,"default","the uprising at the Capitol was domestic terrorism","F","block1","F-N-Michelle.png","critical","list1","list1_1","list1_S","Glenn didn't admit that","Michelle","liberal",0.08,"admit",6531,11,"N",1,"capitol_uprising","S",0.57,"block2",0.8,0.72,0.65,0.52,1,0.2,17039,31,0.7,"Pennsylvania","Ohio","CORRECT","block3",0.47,3756,61,NA,8,"default","To better understand how people view political ideology through demographics.","No",36,"Yes",NA,3,"Male",5,NA,NA,"Lib",0.49,0,0,0,0,0,0,NA,1,"NM","['CA', 'HI', 'KY', 'ME', 'MA', 'NM', 'NY']",NA,NA
4244,"default","mask mandates are necessary","F","block1","F-S-Sarah.png","critical","list1","list1_1","list1_S","Wendy didn't confess that","Sarah","liberal",0,"confess",3125,12,"S",1,"masks","S",0.6,"block2",0.3,0.73,0.71,0.58,1,0.74,23651,28,0.49,"Kentucky","Nevada","CORRECT","block3",0.5,4849,56,NA,9,"default","To better understand how people view political ideology through demographics.","No",36,"Yes",NA,3,"Male",5,NA,NA,"Lib",0.49,0,0,0,0,0,0,NA,1,"NM","['CA', 'HI', 'KY', 'ME', 'MA', 'NM', 'NY']",NA,NA
4244,"default","COVID is a dangerous virus","M","block1","M-S-Joseph.png","critical","list1","list1_1","list1_S","Mary didn't pretend that","Joseph","liberal",0,"pretend",2141,13,"S",1,"COVID","S",0.85,"block2",0.13,0.61,0.05,0.77,1,0.86,18456,25,0.1,"Mississippi","North Dakota","CORRECT","block3",0.2,6262,47,NA,10,"default","To better understand how people view political ideology through demographics.","No",36,"Yes",NA,3,"Male",5,NA,NA,"Lib",0.49,0,0,0,0,0,0,NA,1,"NM","['CA', 'HI', 'KY', 'ME', 'MA', 'NM', 'NY']",NA,NA
4244,"default","Trump's policies damaged the American economy","M","block1","M-N-John.png","critical","list1","list1_1","list1_S","Tony doesn't think that","John","liberal",0,"think",3545,14,"N",1,"Trump_economy","S",0.73,"block2",0.36,0.7,0.16,0.7,0,0.57,25064,33,0.16,"California","Hawaii","INCORRECT","block3",0.17,6454,46,NA,11,"default","To better understand how people view political ideology through demographics.","No",36,"Yes",NA,3,"Male",5,NA,NA,"Lib",0.49,0,0,0,0,0,0,NA,1,"NM","['CA', 'HI', 'KY', 'ME', 'MA', 'NM', 'NY']",NA,NA
4244,"default","Trump handled the pandemic badly","F","block1","F-N-Anna.png","critical","list1","list1_1","list1_S","Danny doesn't see that","Anna","liberal",0.5,"see",4116,15,"N",1,"Trump_pandemic","S",0.58,"block2",0.78,0.73,0.68,0.61,1,0.1,15188,30,0.73,"Maryland","Wisconsin","CORRECT","block3",0.46,4661,59,NA,12,"default","To better understand how people view political ideology through demographics.","No",36,"Yes",NA,3,"Male",5,NA,NA,"Lib",0.49,0,0,0,0,0,0,NA,1,"NM","['CA', 'HI', 'KY', 'ME', 'MA', 'NM', 'NY']",NA,NA
4244,"default","the capital of the US is in Ohio",NA,"block1","NA.png","O","list1","list1_1","list1_S",NA,NA,NA,0,NA,8328,16,NA,1,"capital","S",NA,NA,NA,NA,NA,NA,NA,NA,NA,NA,NA,NA,NA,NA,NA,NA,NA,NA,NA,13,"default","To better understand how people view political ideology through demographics.","No",36,"Yes",NA,3,"Male",5,NA,NA,"Lib",0.49,0,0,0,0,0,0,NA,1,"NM","['CA', 'HI', 'KY', 'ME', 'MA', 'NM', 'NY']",NA,NA
4244,"default","U.S. presidential elections are held in November",NA,"block1","NA.png","O","list1","list1_1","list1_S",NA,NA,NA,1,NA,4406,17,NA,1,"elections","S",NA,NA,NA,NA,NA,NA,NA,NA,NA,NA,NA,NA,NA,NA,NA,NA,NA,NA,NA,14,"default","To better understand how people view political ideology through demographics.","No",36,"Yes",NA,3,"Male",5,NA,NA,"Lib",0.49,0,0,0,0,0,0,NA,1,"NM","['CA', 'HI', 'KY', 'ME', 'MA', 'NM', 'NY']",NA,NA
4244,"default","closing businesses during COVID was necessary","F","block1","F-N-Veronica.png","MC","list1","list1_1","list1_S",NA,"Veronica","liberal",0,NA,2952,18,"N",1,"lockdown","S",0.55,"block2",0.9,0.64,0.74,0.66,1,0.05,34040,24,0.69,"Illinois","West Virginia","CORRECT","block3",1,6971,42,NA,15,"default","To better understand how people view political ideology through demographics.","No",36,"Yes",NA,3,"Male",5,NA,NA,"Lib",0.49,0,0,0,0,0,0,NA,1,"NM","['CA', 'HI', 'KY', 'ME', 'MA', 'NM', 'NY']",NA,NA
4244,"default","the 2020 election was rigged","F","block1","F-S-Kimberly.png","critical","list1","list1_1","list1_S","Jen doesn't know that","Kimberly","conservative",0.7,"know",4043,19,"S",1,"2020_election","S",0.6,"block2",0.13,0.66,0.83,0.59,0,0.77,26269,36,0.52,"Alabama","Conneticut","INCORRECT","block3",0.12,6834,54,NA,16,"default","To better understand how people view political ideology through demographics.","No",36,"Yes",NA,3,"Male",5,NA,NA,"Lib",0.49,0,0,0,0,0,0,NA,1,"NM","['CA', 'HI', 'KY', 'ME', 'MA', 'NM', 'NY']",NA,NA
4181,"default","mask mandates are unnecessary","F","block1","F-S-Sarah.png","critical","list2","list2_2","list2_S","Wendy didn't suggest that","Sarah","conservative",0.21,"suggest",40692,4,"S",2,"masks","S",0.66,"block2",0.26,0.72,0.68,0.63,0.98,0.74,19878,28,0.66,"Kentucky","Alaska","CORRECT","block3",0.63,7075,55,NA,1,"default","Whether someone is certain about something depending on what they hear from others.","No",31,"Yes",NA,3,"Female",2,NA,"None","Other",0.55,0,0,0,0,0,0,NA,1,"IL","['IL', 'IA']",NA,NA
4181,"default","the rich are taxed too much","M","block1","M-S-Eric.png","MC","list2","list2_2","list2_S",NA,"Eric","conservative",0.48,NA,6063,5,"S",2,"taxes","S",0.69,"block2",0.74,0.7,0.14,0.72,0,0.33,18674,31,0.85,"Louisiana","Montana","INCORRECT","block3",0.9,4088,59,NA,2,"default","Whether someone is certain about something depending on what they hear from others.","No",31,"Yes",NA,3,"Female",2,NA,"None","Other",0.55,0,0,0,0,0,0,NA,1,"IL","['IL', 'IA']",NA,NA
4181,"default","the capital of the US is in Ohio",NA,"block1","NA.png","O","list2","list2_2","list2_S",NA,NA,NA,0,NA,7245,6,NA,2,"capital","S",NA,NA,NA,NA,NA,NA,NA,NA,NA,NA,NA,NA,NA,NA,NA,NA,NA,NA,NA,3,"default","Whether someone is certain about something depending on what they hear from others.","No",31,"Yes",NA,3,"Female",2,NA,"None","Other",0.55,0,0,0,0,0,0,NA,1,"IL","['IL', 'IA']",NA,NA
4181,"default","the uprising at the Capitol was patriotic","F","block1","F-N-Anna.png","critical","list2","list2_2","list2_S","Glenn doesn't see that","Anna","conservative",0.02,"see",6687,7,"N",2,"capitol_uprising","S",0.73,"block2",0.68,0.62,0.63,0.65,0.99,0.35,22259,25,0.08,"Maryland","Nevada","CORRECT","block3",0.63,7664,52,NA,4,"default","Whether someone is certain about something depending on what they hear from others.","No",31,"Yes",NA,3,"Female",2,NA,"None","Other",0.55,0,0,0,0,0,0,NA,1,"IL","['IL', 'IA']",NA,NA
4181,"default","COVID is an overhyped virus","M","block1","M-S-Jason.png","critical","list2","list2_2","list2_S","Mary didn't say that","Jason","conservative",0.12,"say",5818,8,"S",2,"COVID","S",0.52,"block2",0.45,0.48,0.31,0.55,0.98,0.63,23064,24,0.53,"Kentucky","Nebraska","CORRECT","block3",0.68,8367,56,NA,5,"default","Whether someone is certain about something depending on what they hear from others.","No",31,"Yes",NA,3,"Female",2,NA,"None","Other",0.55,0,0,0,0,0,0,NA,1,"IL","['IL', 'IA']",NA,NA
4181,"default","closing businesses during COVID was unnecessary","F","block1","F-N-Rachel.png","MC","list2","list2_2","list2_S",NA,"Rachel","conservative",0.53,NA,7502,9,"N",2,"lockdown","S",0.73,"block2",0.69,0.63,0.71,0.71,0,0.39,20055,32,0.2,"Michigan","South Dakota","INCORRECT","block3",0.94,6970,53,NA,6,"default","Whether someone is certain about something depending on what they hear from others.","No",31,"Yes",NA,3,"Female",2,NA,"None","Other",0.55,0,0,0,0,0,0,NA,1,"IL","['IL', 'IA']",NA,NA
4181,"default","the 2020 election was legitimate","F","block1","F-S-Kimberly.png","critical","list2","list2_2","list2_S","Jen didn't acknowledge","Kimberly","liberal",0.5,"acknowledge",4472,10,"S",2,"2020_election","S",0.84,"block2",0.48,0.77,0.72,0.76,0.99,0.55,42394,36,0.5,"Alabama","Wisconsin","CORRECT","block3",0.71,5910,60,NA,7,"default","Whether someone is certain about something depending on what they hear from others.","No",31,"Yes",NA,3,"Female",2,NA,"None","Other",0.55,0,0,0,0,0,0,NA,1,"IL","['IL', 'IA']",NA,NA
4181,"default","Trump handled the pandemic well","F","block1","F-N-Elizabeth.png","critical","list2","list2_2","list2_S","Danny doesn't know that","Elizabeth","conservative",0.36,"know",8598,11,"N",2,"Trump_pandemic","S",0.66,"block2",0.55,0.74,0.71,0.63,0.01,0.47,22792,26,0.28,"Colorado","Delaware","INCORRECT","block3",0.78,5376,45,NA,8,"default","Whether someone is certain about something depending on what they hear from others.","No",31,"Yes",NA,3,"Female",2,NA,"None","Other",0.55,0,0,0,0,0,0,NA,1,"IL","['IL', 'IA']",NA,NA
4181,"default","it is too easy to buy guns","M","block1","M-N-Daniel.png","critical","list2","list2_2","list2_S","Owen doesn't see that","Daniel","liberal",1,"see",3848,12,"N",2,"gun_laws","S",0.71,"block2",0.77,0.62,0.09,0.74,0.01,0.45,19731,34,0.71,"Washington","Rhode Island","INCORRECT","block3",0.91,7543,47,NA,9,"default","Whether someone is certain about something depending on what they hear from others.","No",31,"Yes",NA,3,"Female",2,NA,"None","Other",0.55,0,0,0,0,0,0,NA,1,"IL","['IL', 'IA']",NA,NA
4181,"default","medicaid is underfunded","F","block1","F-S-Amy.png","critical","list2","list2_2","list2_S","Allison didn't suggest that","Amy","liberal",0.49,"suggest",5490,13,"S",2,"medicaid","S",0.7,"block2",0.46,0.66,0.7,0.62,0,0.61,26246,22,0.33,"Arkansas","Ohio","INCORRECT","block3",0.67,5187,49,NA,10,"default","Whether someone is certain about something depending on what they hear from others.","No",31,"Yes",NA,3,"Female",2,NA,"None","Other",0.55,0,0,0,0,0,0,NA,1,"IL","['IL', 'IA']",NA,NA
4181,"default","immigrants support the economy","F","block1","F-N-Helen.png","critical","list2","list2_2","list2_S","Ben doesn't know that","Helen","liberal",0.49,"know",8759,14,"N",2,"immigrants","S",0.78,"block2",0.79,0.68,0.78,0.68,0.98,0.22,18899,33,0.64,"California","Illinois","CORRECT","block3",0.73,5309,61,NA,11,"default","Whether someone is certain about something depending on what they hear from others.","No",31,"Yes",NA,3,"Female",2,NA,"None","Other",0.55,0,0,0,0,0,0,NA,1,"IL","['IL', 'IA']",NA,NA
4181,"default","Trump's policies improved the American economy","M","block1","M-N-John.png","critical","list2","list2_2","list2_S","Tony isn't annoyed that","John","conservative",0.51,"be_annoyed",4566,15,"N",2,"Trump_economy","S",0.58,"block2",0.56,0.51,0.28,0.63,0,0.45,65963,21,0.5,"California","Maine","INCORRECT","block3",0.7,22546,39,NA,12,"default","Whether someone is certain about something depending on what they hear from others.","No",31,"Yes",NA,3,"Female",2,NA,"None","Other",0.55,0,0,0,0,0,0,NA,1,"IL","['IL', 'IA']",NA,NA
4181,"default","the military is underfunded","M","block1","M-S-Anthony.png","critical","list2","list2_2","list2_S","Emma didn't acknowledge","Anthony","conservative",0.24,"acknowledge",3236,16,"S",2,"military","S",0.62,"block2",0.53,0.61,0.19,0.66,0.01,0.62,18517,29,0.28,"Tennessee","Hawaii","INCORRECT","block3",0.71,15023,38,NA,13,"default","Whether someone is certain about something depending on what they hear from others.","No",31,"Yes",NA,3,"Female",2,NA,"None","Other",0.55,0,0,0,0,0,0,NA,1,"IL","['IL', 'IA']",NA,NA
4181,"default","it is too hard to get an abortion","M","block1","M-S-Joseph.png","critical","list2","list2_2","list2_S","Grace didn't say that","Joseph","liberal",0.01,"say",3305,17,"S",2,"abortion","S",0.66,"block2",0.38,0.64,0.12,0.69,0,0.66,29987,35,0.16,"Mississippi","Wyoming","INCORRECT","block3",0.71,7187,40,NA,14,"default","Whether someone is certain about something depending on what they hear from others.","No",31,"Yes",NA,3,"Female",2,NA,"None","Other",0.55,0,0,0,0,0,0,NA,1,"IL","['IL', 'IA']",NA,NA
4181,"default","the minimum wage is too low","M","block1","M-N-Tim.png","critical","list2","list2_2","list2_S","Ken isn't annoyed that","Tim","liberal",0.87,"be_annoyed",3689,18,"N",2,"minimum_wage","S",0.59,"block2",0.78,0.55,0.15,0.64,0.99,0.24,17226,30,0.72,"California","Vermont","CORRECT","block3",0.87,4080,42,NA,15,"default","Whether someone is certain about something depending on what they hear from others.","No",31,"Yes",NA,3,"Female",2,NA,"None","Other",0.55,0,0,0,0,0,0,NA,1,"IL","['IL', 'IA']",NA,NA
4181,"default","U.S. presidential elections are held in November",NA,"block1","NA.png","O","list2","list2_2","list2_S",NA,NA,NA,0.98,NA,4829,19,NA,2,"elections","S",NA,NA,NA,NA,NA,NA,NA,NA,NA,NA,NA,NA,NA,NA,NA,NA,NA,NA,NA,16,"default","Whether someone is certain about something depending on what they hear from others.","No",31,"Yes",NA,3,"Female",2,NA,"None","Other",0.55,0,0,0,0,0,0,NA,1,"IL","['IL', 'IA']",NA,NA
4148,"default","Trump handled the pandemic well","F","block1","F-N-Michelle.png","critical","list2","list2_2","list2_S","Danny isn't right that","Michelle","conservative",0.02,"be_right",5754,4,"N",2,"Trump_pandemic","S",0.71,"block2",0.75,0.84,0.85,0.79,0,0.21,29709,29,0.06,"Pennsylvania","Illinois","INCORRECT","block3",0,11654,58,NA,1,"default","Looking at what we think of other people based on where they live and what they say.","No",69,"Yes","All or most of the subjects seemed to be of a certain age - 25 to 35, or so.",3,"Female",1,"none",NA,"Dem",0.09,0,0,0,0,0,0,NA,1,"OH","['OH', 'WV']",NA,NA
4148,"default","U.S. presidential elections are held in November",NA,"block1","NA.png","O","list2","list2_2","list2_S",NA,NA,NA,1,NA,4438,5,NA,2,"elections","S",NA,NA,NA,NA,NA,NA,NA,NA,NA,NA,NA,NA,NA,NA,NA,NA,NA,NA,NA,2,"default","Looking at what we think of other people based on where they live and what they say.","No",69,"Yes","All or most of the subjects seemed to be of a certain age - 25 to 35, or so.",3,"Female",1,"none",NA,"Dem",0.09,0,0,0,0,0,0,NA,1,"OH","['OH', 'WV']",NA,NA
4148,"default","the 2020 election was legitimate","F","block1","F-S-Amy.png","critical","list2","list2_2","list2_S","Jen didn't admit that","Amy","liberal",0.99,"admit",4527,6,"S",2,"2020_election","S",0.6,"block2",0.14,0.53,0.81,0.46,0,0.85,32710,27,0.35,"Arkansas","New Mexico","INCORRECT","block3",0.22,13255,47,NA,3,"default","Looking at what we think of other people based on where they live and what they say.","No",69,"Yes","All or most of the subjects seemed to be of a certain age - 25 to 35, or so.",3,"Female",1,"none",NA,"Dem",0.09,0,0,0,0,0,0,NA,1,"OH","['OH', 'WV']",NA,NA
4148,"default","the minimum wage is too low","M","block1","M-N-James.png","critical","list2","list2_2","list2_S","Ken didn't suggest that","James","liberal",0.86,"suggest",3694,7,"N",2,"minimum_wage","S",0.8,"block2",0.95,0.73,0.01,0.79,1,0.1,26606,31,0.91,"New York","Rhode Island","CORRECT","block3",0.37,21659,38,NA,4,"default","Looking at what we think of other people based on where they live and what they say.","No",69,"Yes","All or most of the subjects seemed to be of a certain age - 25 to 35, or so.",3,"Female",1,"none",NA,"Dem",0.09,0,0,0,0,0,0,NA,1,"OH","['OH', 'WV']",NA,NA
4148,"default","the uprising at the Capitol was patriotic","F","block1","F-N-Lisa.png","critical","list2","list2_2","list2_S","Glenn didn't hear that","Lisa","conservative",0,"hear",4064,8,"N",2,"capitol_uprising","S",0.82,"block2",0.86,0.83,0.85,0.87,0.99,0.1,29718,25,0.04,"Oregon","Nebraska","CORRECT","block3",0.51,9582,60,NA,5,"default","Looking at what we think of other people based on where they live and what they say.","No",69,"Yes","All or most of the subjects seemed to be of a certain age - 25 to 35, or so.",3,"Female",1,"none",NA,"Dem",0.09,0,0,0,0,0,0,NA,1,"OH","['OH', 'WV']",NA,NA
4148,"default","closing businesses during COVID was unnecessary","F","block1","F-N-Veronica.png","MC","list2","list2_2","list2_S",NA,"Veronica","conservative",0.03,NA,4223,9,"N",2,"lockdown","S",0.88,"block2",0.93,0.82,0.85,0.88,0,0.04,26822,32,0.05,"Illinois","New Jersey","INCORRECT","block3",1,10278,44,NA,6,"default","Looking at what we think of other people based on where they live and what they say.","No",69,"Yes","All or most of the subjects seemed to be of a certain age - 25 to 35, or so.",3,"Female",1,"none",NA,"Dem",0.09,0,0,0,0,0,0,NA,1,"OH","['OH', 'WV']",NA,NA
4148,"default","COVID is an overhyped virus","M","block1","M-S-Anthony.png","critical","list2","list2_2","list2_S","Mary didn't say that","Anthony","conservative",0.01,"say",4367,10,"S",2,"COVID","S",0.72,"block2",0.21,0.66,0,0.55,0.98,0.91,36622,22,0.63,"Tennessee","Hawaii","CORRECT","block3",0.26,10863,49,NA,7,"default","Looking at what we think of other people based on where they live and what they say.","No",69,"Yes","All or most of the subjects seemed to be of a certain age - 25 to 35, or so.",3,"Female",1,"none",NA,"Dem",0.09,0,0,0,0,0,0,NA,1,"OH","['OH', 'WV']",NA,NA
4148,"default","it is too easy to buy guns","M","block1","M-N-Tim.png","critical","list2","list2_2","list2_S","Owen didn't hear that","Tim","liberal",0.99,"hear",3751,11,"N",2,"gun_laws","S",0.75,"block2",0.86,0.66,0,0.64,0,0.13,27087,34,0.69,"California","Maine","INCORRECT","block3",0.71,11086,40,NA,8,"default","Looking at what we think of other people based on where they live and what they say.","No",69,"Yes","All or most of the subjects seemed to be of a certain age - 25 to 35, or so.",3,"Female",1,"none",NA,"Dem",0.09,0,0,0,0,0,0,NA,1,"OH","['OH', 'WV']",NA,NA
4148,"default","the military is underfunded","M","block1","M-S-Michael.png","critical","list2","list2_2","list2_S","Emma didn't admit that","Michael","conservative",0.51,"admit",3087,12,"S",2,"military","S",0.73,"block2",0.34,0.69,0,0.62,0.99,0.65,27446,26,0.55,"Georgia","Montana","CORRECT","block3",0.78,11943,56,NA,9,"default","Looking at what we think of other people based on where they live and what they say.","No",69,"Yes","All or most of the subjects seemed to be of a certain age - 25 to 35, or so.",3,"Female",1,"none",NA,"Dem",0.09,0,0,0,0,0,0,NA,1,"OH","['OH', 'WV']",NA,NA
4148,"default","medicaid is underfunded","F","block1","F-S-Kimberly.png","critical","list2","list2_2","list2_S","Allison didn't acknowledge","Kimberly","liberal",0.76,"acknowledge",5343,13,"S",2,"medicaid","S",0.78,"block2",0.05,0.79,0.9,0.67,0.01,0.93,26094,30,0.06,"Alabama","North Dakota","INCORRECT","block3",0.33,8575,53,NA,10,"default","Looking at what we think of other people based on where they live and what they say.","No",69,"Yes","All or most of the subjects seemed to be of a certain age - 25 to 35, or so.",3,"Female",1,"none",NA,"Dem",0.09,0,0,0,0,0,0,NA,1,"OH","['OH', 'WV']",NA,NA
4148,"default","Trump's policies improved the American economy","M","block1","M-N-Daniel.png","critical","list2","list2_2","list2_S","Tony didn't suggest that","Daniel","conservative",0,"suggest",4710,14,"N",2,"Trump_economy","S",0.76,"block2",0.75,0.74,0.03,0.68,0.01,0.18,39632,21,0.08,"Washington","Nevada","INCORRECT","block3",0.18,13152,59,NA,11,"default","Looking at what we think of other people based on where they live and what they say.","No",69,"Yes","All or most of the subjects seemed to be of a certain age - 25 to 35, or so.",3,"Female",1,"none",NA,"Dem",0.09,0,0,0,0,0,0,NA,1,"OH","['OH', 'WV']",NA,NA
4148,"default","immigrants support the economy","F","block1","F-N-Helen.png","critical","list2","list2_2","list2_S","Ben isn't right that","Helen","liberal",1,"be_right",4040,15,"N",2,"immigrants","S",0.71,"block2",0.92,0.83,0.89,0.86,0,0.06,27342,24,0.88,"California","Idaho","INCORRECT","block3",0.05,13630,54,NA,12,"default","Looking at what we think of other people based on where they live and what they say.","No",69,"Yes","All or most of the subjects seemed to be of a certain age - 25 to 35, or so.",3,"Female",1,"none",NA,"Dem",0.09,0,0,0,0,0,0,NA,1,"OH","['OH', 'WV']",NA,NA
4148,"default","the capital of the US is in Ohio",NA,"block1","NA.png","O","list2","list2_2","list2_S",NA,NA,NA,0,NA,5383,16,NA,2,"capital","S",NA,NA,NA,NA,NA,NA,NA,NA,NA,NA,NA,NA,NA,NA,NA,NA,NA,NA,NA,13,"default","Looking at what we think of other people based on where they live and what they say.","No",69,"Yes","All or most of the subjects seemed to be of a certain age - 25 to 35, or so.",3,"Female",1,"none",NA,"Dem",0.09,0,0,0,0,0,0,NA,1,"OH","['OH', 'WV']",NA,NA
4148,"default","it is too hard to get an abortion","M","block1","M-S-Ryan.png","critical","list2","list2_2","list2_S","Grace didn't say that","Ryan","liberal",0.93,"say",8639,17,"S",2,"abortion","S",0.74,"block2",0.15,0.65,0,0.57,1,0.83,31502,23,0.21,"Arkansas","New Hampshire","CORRECT","block3",0.31,8463,52,NA,14,"default","Looking at what we think of other people based on where they live and what they say.","No",69,"Yes","All or most of the subjects seemed to be of a certain age - 25 to 35, or so.",3,"Female",1,"none",NA,"Dem",0.09,0,0,0,0,0,0,NA,1,"OH","['OH', 'WV']",NA,NA
4148,"default","mask mandates are unnecessary","F","block1","F-S-Donna.png","critical","list2","list2_2","list2_S","Wendy didn't acknowledge","Donna","conservative",0,"acknowledge",3327,18,"S",2,"masks","S",0.74,"block2",0.4,0.68,0.8,0.55,0,0.6,30550,28,0.57,"Tennessee","Conneticut","INCORRECT","block3",0.43,11335,61,NA,15,"default","Looking at what we think of other people based on where they live and what they say.","No",69,"Yes","All or most of the subjects seemed to be of a certain age - 25 to 35, or so.",3,"Female",1,"none",NA,"Dem",0.09,0,0,0,0,0,0,NA,1,"OH","['OH', 'WV']",NA,NA
4148,"default","the rich are taxed too much","M","block1","M-S-Eric.png","MC","list2","list2_2","list2_S",NA,"Eric","conservative",0,NA,3343,19,"S",2,"taxes","S",0.9,"block2",0.88,0.87,0,0.95,0.99,0.1,24366,36,0.05,"Louisiana","West Virginia","CORRECT","block3",0.98,7456,43,NA,16,"default","Looking at what we think of other people based on where they live and what they say.","No",69,"Yes","All or most of the subjects seemed to be of a certain age - 25 to 35, or so.",3,"Female",1,"none",NA,"Dem",0.09,0,0,0,0,0,0,NA,1,"OH","['OH', 'WV']",NA,NA
4216,"default","mask mandates are necessary","M","block1","M-N-John.png","critical","list1","list1_1","list1_NS","Wendy didn't acknowledge","John","liberal",0.95,"acknowledge",3791,4,"N",1,"masks","NS",0.48,"block2",0.69,0.51,0.03,0.47,1,0.31,24785,31,0.82,"California","Nebraska","CORRECT","block3",0.91,4416,42,NA,1,"default","Views of others","No",36,"Yes",NA,2,"Male",0,NA,NA,"Dem",0.1,0,0,0,0,0,0,NA,1,"WA","['GA', 'ID', 'MS', 'OR']",NA,NA
4216,"default","the capital of the US is in Ohio",NA,"block1","NA.png","O","list1","list1_1","list1_NS",NA,NA,NA,0,NA,3808,5,NA,1,"capital","NS",NA,NA,NA,NA,NA,NA,NA,NA,NA,NA,NA,NA,NA,NA,NA,NA,NA,NA,NA,2,"default","Views of others","No",36,"Yes",NA,2,"Male",0,NA,NA,"Dem",0.1,0,0,0,0,0,0,NA,1,"WA","['GA', 'ID', 'MS', 'OR']",NA,NA
4216,"default","the uprising at the Capitol was domestic terrorism","M","block1","M-S-Joseph.png","critical","list1","list1_1","list1_NS","Glenn doesn't see that","Joseph","liberal",1,"see",2922,6,"S",1,"capitol_uprising","NS",0.5,"block2",0.51,0.52,0.1,0.52,0,0.53,44495,21,0.75,"Mississippi","Wyoming","INCORRECT","block3",0.96,14224,38,NA,3,"default","Views of others","No",36,"Yes",NA,2,"Male",0,NA,NA,"Dem",0.1,0,0,0,0,0,0,NA,1,"WA","['GA', 'ID', 'MS', 'OR']",NA,NA
4216,"default","Trump handled the pandemic badly","M","block1","M-S-Michael.png","critical","list1","list1_1","list1_NS","Danny isn't annoyed that","Michael","liberal",1,"be_annoyed",2782,7,"S",1,"Trump_pandemic","NS",0.48,"block2",0.33,0.53,0.05,0.46,1,0.7,22057,34,0.33,"Georgia","Minnesota","CORRECT","block3",0.96,12167,57,NA,4,"default","Views of others","No",36,"Yes",NA,2,"Male",0,NA,NA,"Dem",0.1,0,0,0,0,0,0,NA,1,"WA","['GA', 'ID', 'MS', 'OR']",NA,NA
4216,"default","immigrants steal jobs from Americans","M","block1","M-S-Anthony.png","critical","list1","list1_1","list1_NS","Ben isn't annoyed that","Anthony","conservative",0,"be_annoyed",2912,8,"S",1,"immigrants","NS",0.51,"block2",0.36,0.47,0.18,0.49,1,0.69,28960,29,0.65,"Tennessee","Rhode Island","CORRECT","block3",1,3624,51,NA,5,"default","Views of others","No",36,"Yes",NA,2,"Male",0,NA,NA,"Dem",0.1,0,0,0,0,0,0,NA,1,"WA","['GA', 'ID', 'MS', 'OR']",NA,NA
4216,"default","Trump's policies damaged the American economy","F","block1","F-S-Kimberly.png","critical","list1","list1_1","list1_NS","Tony doesn't know that","Kimberly","liberal",1,"know",2888,9,"S",1,"Trump_economy","NS",0.48,"block2",0.39,0.5,0.87,0.48,0,0.59,25880,36,0.65,"Alabama","West Virginia","INCORRECT","block3",0.95,4857,60,NA,6,"default","Views of others","No",36,"Yes",NA,2,"Male",0,NA,NA,"Dem",0.1,0,0,0,0,0,0,NA,1,"WA","['GA', 'ID', 'MS', 'OR']",NA,NA
4216,"default","the 2020 election was rigged","M","block1","M-N-James.png","critical","list1","list1_1","list1_NS","Jen didn't admit that","James","conservative",0,"admit",2391,10,"N",1,"2020_election","NS",0.49,"block2",0.49,0.5,0.09,0.52,0,0.45,21072,24,0.2,"New York","Wisconsin","INCORRECT","block3",0.92,4007,40,NA,7,"default","Views of others","No",36,"Yes",NA,2,"Male",0,NA,NA,"Dem",0.1,0,0,0,0,0,0,NA,1,"WA","['GA', 'ID', 'MS', 'OR']",NA,NA
4216,"default","medicaid is overfunded","M","block1","M-N-Tim.png","critical","list1","list1_1","list1_NS","Allison didn't acknowledge","Tim","conservative",0,"acknowledge",2264,11,"N",1,"medicaid","NS",0.52,"block2",0.59,0.5,0.3,0.5,1,0.38,22800,27,0.21,"California","Delaware","CORRECT","block3",0.9,5535,61,NA,8,"default","Views of others","No",36,"Yes",NA,2,"Male",0,NA,NA,"Dem",0.1,0,0,0,0,0,0,NA,1,"WA","['GA', 'ID', 'MS', 'OR']",NA,NA
4216,"default","closing businesses during COVID was necessary","M","block1","M-S-Jay.png","MC","list1","list1_1","list1_NS",NA,"Jay","liberal",1,NA,3071,12,"S",1,"lockdown","NS",0.5,"block2",0.54,0.5,0.11,0.49,1,0.47,20880,28,0.74,"Virginia","New Jersey","CORRECT","block3",1,4247,55,NA,9,"default","Views of others","No",36,"Yes",NA,2,"Male",0,NA,NA,"Dem",0.1,0,0,0,0,0,0,NA,1,"WA","['GA', 'ID', 'MS', 'OR']",NA,NA
4216,"default","U.S. presidential elections are held in November",NA,"block1","NA.png","O","list1","list1_1","list1_NS",NA,NA,NA,1,NA,3120,13,NA,1,"elections","NS",NA,NA,NA,NA,NA,NA,NA,NA,NA,NA,NA,NA,NA,NA,NA,NA,NA,NA,NA,10,"default","Views of others","No",36,"Yes",NA,2,"Male",0,NA,NA,"Dem",0.1,0,0,0,0,0,0,NA,1,"WA","['GA', 'ID', 'MS', 'OR']",NA,NA
4216,"default","it is too difficult to buy guns","F","block1","F-S-Donna.png","critical","list1","list1_1","list1_NS","Owen doesn't see that","Donna","conservative",0,"see",2703,14,"S",1,"gun_laws","NS",0.49,"block2",0.56,0.48,0.7,0.47,1,0.38,18711,32,0.3,"Tennessee","Idaho","CORRECT","block3",1,6151,45,NA,11,"default","Views of others","No",36,"Yes",NA,2,"Male",0,NA,NA,"Dem",0.1,0,0,0,0,0,0,NA,1,"WA","['GA', 'ID', 'MS', 'OR']",NA,NA
4216,"default","the rich are taxed too little","M","block1","M-N-Jacob.png","MC","list1","list1_1","list1_NS",NA,"Jacob","liberal",1,NA,2311,15,"N",1,"taxes","NS",0.49,"block2",0.45,0.51,0.01,0.48,0,0.46,21512,33,0.66,"Massachusetts","Nevada","INCORRECT","block3",1,3864,43,NA,12,"default","Views of others","No",36,"Yes",NA,2,"Male",0,NA,NA,"Dem",0.1,0,0,0,0,0,0,NA,1,"WA","['GA', 'ID', 'MS', 'OR']",NA,NA
4216,"default","the minimum wage is too high","F","block1","F-S-Amy.png","critical","list1","list1_1","list1_NS","Ken doesn't know that","Amy","conservative",0,"know",2904,16,"S",1,"minimum_wage","NS",0.5,"block2",0.39,0.5,0.9,0.46,0,0.58,21471,35,0.34,"Arkansas","New Hampshire","INCORRECT","block3",0.96,5751,54,NA,13,"default","Views of others","No",36,"Yes",NA,2,"Male",0,NA,NA,"Dem",0.1,0,0,0,0,0,0,NA,1,"WA","['GA', 'ID', 'MS', 'OR']",NA,NA
4216,"default","COVID is a dangerous virus","F","block1","F-N-Michelle.png","critical","list1","list1_1","list1_NS","Mary didn't confess that","Michelle","liberal",1,"confess",2368,17,"N",1,"COVID","NS",0.49,"block2",0.7,0.52,0.72,0.5,1,0.34,24208,26,0.72,"Pennsylvania","Conneticut","CORRECT","block3",1,5904,47,NA,14,"default","Views of others","No",36,"Yes",NA,2,"Male",0,NA,NA,"Dem",0.1,0,0,0,0,0,0,NA,1,"WA","['GA', 'ID', 'MS', 'OR']",NA,NA
